Folder: ImpedanceFitter/data (part 3)

File: DE_40_5_60.mpt
EC-Lab ASCII FILE
Nb header lines : 75

Potentio Electrochemical Impedance Spectroscopy

Run on channel : 1 (SN 20909)
User :
CE vs. WE compliance from -10 V to 10 V
Electrode connection : standard
Ewe ctrl range : min = -10.00 V, max = 10.00 V
Safety Limits :
	Do not start on E overload
Acquisition started on : 01/24/2020 09:52:24
Technique started on : 01/24/2020 09:52:25
Saved on :
	File : DE_40_5_60.mpr
	Directory : P:\Chemistry\Data\VMP3\Kyler\DOE\DE_40\2ND 60C\
	Host : 10.0.4.99
Device : VMP3 (SN 0183)
Address : USB
EC-Lab for windows v11.33 (software)
Internet server v11.32 (firmware)
Command interpretor v11.33 (firmware)
Electrode material :
Initial state :
Electrolyte :
Comments :
Electrode surface area : 0.001 cm²
Characteristic mass : 0.001 g
Equivalent Weight : 0.000 g/eq.
Density : 0.000 g/cm3
Record Analogic IN 1
Cycle Definition : Charge/Discharge alternance
External device configuration :
   device type : Thermostat
   device name : Other
   Analog OUT :
      mode : E/V
      unit : T/°C
      max : 400.000 at 5.000 V
      min : -100.000 at 0.000 V
      current : 0.000
   Analog IN 1 :
      unit : T/°C
      max : 400.000 at 5.000 V
      min : -100.000 at 0.000 V
Mode                Single sine
E (V)               0.0000
vs.                 Eoc
tE (h:m:s)          0:00:0.0000
record              0
dI                  1.000
unit dI             mA
dt (s)              0.000
fi                  1.000
unit fi             MHz
ff                  1.000
unit ff             Hz
Nd                  20
Points              per decade
spacing             Logarithmic
Va (mV)             128.0
pw                  0.50
Na                  3
corr                0
E range min (V)     -10.000
E range max (V)     10.000
I Range             Auto
Bandwidth           5
nc cycles           0
goto Ns'            0
nr cycles           0
inc. cycle          1

freq/Hz	Re(Z)/Ohm	-Im(Z)/Ohm	|Z|/Ohm	Phase(Z)/deg	time/s	<Ewe>/V	<I>/mA	Cs/µF	Cp/µF	cycle number	I Range	|Ewe|/V	|I|/A	(Q-Qo)/mA.h	Analog OUT/V	Analog IN 1/V	Re(Y)/Ohm-1	Im(Y)/Ohm-1	|Y|/Ohm-1	Phase(Y)/deg	dq/mA.h
1.00002e+06	56.8628	61.6886	83.8979	-47.331	1.85048	-0.0190849	0.00311089	0.00257993	0.00139481	1	11	0.00201692	2.40402e-05	8.07478e-07	0.0000000E+000	-100.054	0.00807841	0.008764	0.0119192	47.331	8.07478e-07
707950	77.041	53.4354	93.7585	-34.7451	3.63949	-0.0177049	0.00305938	0.00420716	0.00136655	1	11	0.00722892	7.71015e-05	2.20302e-06	0.0000000E+000	-100.086	0.00876397	0.00607866	0.0106657	34.7451	4.67669e-07
501206	93.6743	47.3902	104.98	-26.835	5.42649	-0.016671	0.00316782	0.00670062	0.00136547	1	11	0.018432	0.000175577	3.74715e-06	0.0000000E+000	-100.054	0.00849985	0.00430011	0.00952567	26.835	4.61708e-07
354810	106.116	39.9857	113.4	-20.6469	7.21149	-0.0161621	0.00307078	0.0112181	0.00139477	1	11	0.0362419	0.000319593	5.16952e-06	0.0000000E+000	-100.078	0.00825196	0.00310942	0.00881835	20.6469	7.41048e-07
251188	114.274	31.9342	118.652	-15.6132	8.99748	-0.0160082	0.00312845	0.0198411	0.00143724	1	11	0.0617244	0.000520215	6.51945e-06	0.0000000E+000	-100.094	0.00811704	0.00226833	0.00842803	15.6132	5.75735e-07
177832	118.863	24.9393	121.451	-11.8497	10.7865	-0.0159121	0.0031432	0.0358862	0.00151319	1	11	0.0958192	0.000788955	6.10764e-06	0.0000000E+000	-100.054	0.00805832	0.00169076	0.00823379	11.8497	-8.24262e-07
125909	121.488	19.851	123.099	-9.28009	12.3015	-0.0158546	0.00314638	0.0636766	0.00165591	1	11	0.138425	0.0011245	7.25414e-06	0.0000000E+000	-100.046	0.00801724	0.00131001	0.00812357	9.28009	7.90538e-07
89129.3	123.047	16.4445	124.141	-7.61214	14.0885	-0.0156913	0.00309897	0.108587	0.00190542	1	11	0.129452	0.00104278	8.96366e-06	0.0000000E+000	-100.046	0.00798438	0.00106707	0.00805537	7.61214	4.60268e-07
63093.8	123.956	14.5822	124.81	-6.70948	15.8765	-0.0156101	0.00321319	0.172986	0.00236132	1	11	0.129449	0.00103716	1.31134e-05	0.0000000E+000	-100.07	0.00795728	0.0009361	0.00801216	6.70948	6.51934e-07
44666.7	124.541	14.2137	125.349	-6.51092	17.5295	-0.0155571	0.00317867	0.250686	0.00322328	1	11	0.130433	0.00104055	1.29842e-05	0.0000000E+000	-100.054	0.00792625	0.000904612	0.0079777	6.51092	-1.04245e-06
31621.1	125.015	15.3581	125.955	-7.00369	19.0445	-0.0155507	0.00309692	0.327721	0.00487247	1	11	0.137835	0.00109432	1.29458e-05	0.0000000E+000	-100.078	0.0078801	0.00096807	0.00793934	7.00369	1.2019e-06
22389	125.533	18.1129	126.833	-8.21041	20.6955	-0.01553	0.00308367	0.392462	0.00800401	1	11	0.129265	0.00101917	1.54658e-05	0.0000000E+000	-100.046	0.00780357	0.00112596	0.00788438	8.21041	-4.31446e-07
15847.7	126.301	22.79	128.341	-10.2285	22.0725	-0.0155272	0.00308554	0.440666	0.0138954	1	11	0.140462	0.00109445	1.54889e-05	0.0000000E+000	-100.086	0.00766794	0.00138362	0.00779177	10.2285	-1.72322e-07
11217.7	127.474	29.7897	130.909	-13.1535	23.5855	-0.0155131	0.00304914	0.476266	0.0246629	1	11	0.133106	0.00101679	1.72711e-05	0.0000000E+000	-100.134	0.00743849	0.00173832	0.00763891	13.1535	5.61002e-07
7944	129.365	39.7178	135.325	-17.0676	25.054	-0.0154857	0.00326955	0.504424	0.0434523	1	11	0.136162	0.00100619	1.76062e-05	0.0000000E+000	-100.07	0.00706419	0.00216886	0.00738964	17.0676	5.0052e-07
5621.06	132.305	53.4112	142.679	-21.9839	26.9663	-0.0154628	0.00317288	0.530114	0.0742873	1	11	0.137414	0.000963097	1.86988e-05	0.0000000E+000	-100.062	0.00649913	0.00262369	0.00700874	21.9839	8.44668e-08
3981.27	136.802	71.7742	154.487	-27.6841	29.2467	-0.0154646	0.00308311	0.556967	0.120221	1	11	0.137639	0.000890939	2.19111e-05	0.0000000E+000	-100.046	0.00573201	0.00300734	0.00647302	27.6841	1.41603e-06
2817.3	143.569	96.1731	172.804	-33.8171	31.5269	-0.0154668	0.00308647	0.5874	0.181942	1	11	0.137344	0.000794797	2.53511e-05	0.0000000E+000	-100.086	0.00480786	0.00322067	0.0057869	33.8171	1.18904e-06
1995.64	153.317	127.972	199.707	-39.8513	33.8067	-0.0154637	0.0030999	0.623194	0.255897	1	11	0.136877	0.000685388	2.66731e-05	0.0000000E+000	-100.038	0.00384418	0.00320869	0.00500733	39.8513	1.20686e-06
1411.84	166.878	169.472	237.842	-45.4419	36.0882	-0.0154589	0.00312733	0.665178	0.337719	1	11	0.136437	0.000573646	2.77799e-05	0.0000000E+000	-100.086	0.00294999	0.00299585	0.00420447	45.4419	4.88031e-07
1000.32	184.948	223.01	289.723	-50.3302	38.3657	-0.0154707	0.00305062	0.713437	0.422707	1	11	0.13609	0.000469725	2.94385e-05	0.0000000E+000	-100.07	0.00220335	0.0026568	0.00345157	50.3302	4.69579e-07
707.509	208.809	293.002	359.793	-54.5243	40.8974	-0.0154686	0.00122066	0.767747	0.509158	1	12	0.139326	0.000387239	3.09804e-05	0.0000000E+000	-100.062	0.00161303	0.00226342	0.00277938	54.5243	3.1241e-07
501.444	239.2	383.733	452.181	-58.0626	43.1692	-0.0154718	0.00124186	0.82712	0.595665	1	12	0.13773	0.000304589	3.19344e-05	0.0000000E+000	-100.102	0.00116987	0.00187674	0.0022115	58.0626	9.60633e-08
354.66	277.968	503.362	575.013	-61.0915	45.4489	-0.0154686	0.00125039	0.891514	0.683178	1	12	0.136767	0.00023785	3.30811e-05	0.0000000E+000	-100.102	0.000840698	0.00152239	0.00173909	61.0915	4.14208e-07
251.044	326.571	660.733	737.033	-63.6989	47.7179	-0.0154686	0.00122719	0.959496	0.771121	1	12	0.136206	0.000184804	3.36406e-05	0.0000000E+000	-100.078	0.000601179	0.00121633	0.00135679	63.6989	1.2039e-07
177.781	386.878	869.007	951.235	-66.0016	50.0102	-0.0154724	0.00123329	1.03017	0.859769	1	12	0.135885	0.000142851	3.41034e-05	0.0000000E+000	-100.062	0.000427562	0.00096039	0.00105126	66.0016	2.36992e-07
125.846	461.301	1147.14	1236.42	-68.0934	52.2854	-0.0154709	0.00124002	1.10247	0.949004	1	12	0.135705	0.000109757	3.48991e-05	0.0000000E+000	-100.094	0.000301755	0.000750389	0.000808789	68.0934	2.12855e-07
89.116	552.696	1520.29	1617.64	-70.0215	54.5577	-0.0154658	0.00123687	1.17473	1.03759	1	12	0.1356	8.38259e-05	3.55583e-05	0.0000000E+000	-100.062	0.000211214	0.000580982	0.000618184	70.0215	2.73266e-07
63.0823	664.227	2023.2	2129.44	-71.8247	56.8538	-0.0154674	0.00124407	1.24702	1.12569	1	12	0.135546	6.36532e-05	3.63365e-05	0.0000000E+000	-100.054	0.000146482	0.000446176	0.000469607	71.8247	2.48025e-07
44.6712	804.042	2708.12	2824.96	-73.4638	59.3712	-0.0154629	0.00106289	1.3156	1.20903	1	13	0.135842	4.80864e-05	3.71582e-05	0.0000000E+000	-100.118	0.000100752	0.000339346	0.000353987	73.4638	2.22917e-07
31.6296	977.818	3641.55	3770.54	-74.9696	61.6085	-0.0154614	0.00105662	1.38179	1.28886	1	13	0.135672	3.59819e-05	3.77628e-05	0.0000000E+000	-100.094	6.87781e-05	0.00025614	0.000265214	74.9696	1.79352e-07
22.3854	1199.8	4921.78	5065.91	-76.3	63.8564	-0.0154698	0.00104928	1.44455	1.36352	1	13	0.135581	2.67633e-05	3.84547e-05	0.0000000E+000	-100.094	4.67512e-05	0.000191782	0.000197398	76.3	1.65885e-07
15.8576	1487.79	6673.69	6837.52	-77.4323	66.1849	-0.0154687	0.00105141	1.50389	1.43269	1	13	0.135531	1.98217e-05	3.91113e-05	0.0000000E+000	-100.062	3.18233e-05	0.000142748	0.000146252	77.4323	1.52728e-07
11.2249	1875.02	9082.48	9274	-78.3355	68.5619	-0.0154672	0.00104897	1.56112	1.4973	1	13	0.13551	1.46118e-05	3.97635e-05	0.0000000E+000	-100.07	2.18008e-05	0.000105601	0.000107828	78.3355	1.04129e-07
7.93953	2420.96	12398.8	12633	-78.9516	71.1057	-0.0154595	0.00104038	1.61676	1.55738	1	13	0.135494	1.07254e-05	4.05808e-05	0.0000000E+000	-100.078	1.51696e-05	7.76908e-05	7.91579e-05	78.9516	3.16456e-07
5.6205	3197.01	16969	17267.6	-79.3304	72.9707	-0.0154632	0.00101845	1.66874	1.61153	1	13	0.135488	7.84638e-06	4.11497e-05	0.0000000E+000	-100.062	1.07221e-05	5.69108e-05	5.7912e-05	79.3304	1.89244e-07
3.97785	4329.42	23115.6	23517.5	-79.3917	75.5062	-0.0154622	0.00105816	1.73088	1.67222	1	13	0.135484	5.76098e-06	4.18449e-05	0.0000000E+000	-100.022	7.82795e-06	4.17948e-05	4.25215e-05	79.3917	3.55289e-07
2.81836	5944.86	31488.8	32045	-79.3088	79.0046	-0.0154587	0.00104902	1.79336	1.73164	1	13	0.135483	4.22789e-06	4.28446e-05	0.0000000E+000	-100.03	5.78923e-06	3.06644e-05	3.12061e-05	79.3088	4.39514e-07
1.99706	8339.25	42904.6	43707.6	-79.0007	84.3137	-0.015458	0.00102104	1.85748	1.78986	1	14	0.135491	3.09995e-06	4.43227e-05	0.0000000E+000	-100.102	4.3653e-06	2.2459e-05	2.28793e-05	79.0007	5.76146e-07
1.41224	11744	58235.1	59407.4	-78.5983	91.1201	-0.0154536	0.00100625	1.93521	1.85958	1	14	0.135487	2.28064e-06	4.62889e-05	0.0000000E+000	-100.078	3.32763e-06	1.65007e-05	1.68329e-05	78.5983	8.33031e-07
1.00006	16974.1	78727.2	80536.3	-77.8329	100.664	-0.0154555	0.00101718	2.02147	1.93167	1	14	0.135486	1.6823e-06	4.8862e-05	0.0000000E+000	-100.054	2.617e-06	1.21378e-05	1.24168e-05	77.8329	8.88843e-07

File: DE_40_6_60.mpt
EC-Lab ASCII FILE
Nb header lines : 75

Potentio Electrochemical Impedance Spectroscopy

Run on channel : 2 (SN 20919)
User :
CE vs. WE compliance from -10 V to 10 V
Electrode connection : standard
Ewe ctrl range : min = -10.00 V, max = 10.00 V
Safety Limits :
	Do not start on E overload
Acquisition started on : 01/24/2020 09:52:15
Technique started on : 01/24/2020 09:52:16
Saved on :
	File : DE_40_6_60.mpr
	Directory : P:\Chemistry\Data\VMP3\Kyler\DOE\DE_40\2ND 60C\
	Host : 10.0.4.99
Device : VMP3 (SN 0183)
Address : USB
EC-Lab for windows v11.33 (software)
Internet server v11.32 (firmware)
Command interpretor v11.33 (firmware)
Electrode material :
Initial state :
Electrolyte :
Comments :
Electrode surface area : 0.001 cm²
Characteristic mass : 0.001 g
Equivalent Weight : 0.000 g/eq.
Density : 0.000 g/cm3
Record Analogic IN 1
Cycle Definition : Charge/Discharge alternance
External device configuration :
   device type : Thermostat
   device name : Other
   Analog OUT :
      mode : E/V
      unit : T/°C
      max : 400.000 at 5.000 V
      min : -100.000 at 0.000 V
      current : 0.000
   Analog IN 1 :
      unit : T/°C
      max : 400.000 at 5.000 V
      min : -100.000 at 0.000 V
Mode                Single sine
E (V)               0.0000
vs.                 Eoc
tE (h:m:s)          0:00:0.0000
record              0
dI                  1.000
unit dI             mA
dt (s)              0.000
fi                  1.000
unit fi             MHz
ff                  1.000
unit ff             Hz
Nd                  20
Points              per decade
spacing             Logarithmic
Va (mV)             128.0
pw                  0.50
Na                  3
corr                0
E range min (V)     -10.000
E range max (V)     10.000
I Range             Auto
Bandwidth           5
nc cycles           0
goto Ns'            0
nr cycles           0
inc. cycle          1

freq/Hz	Re(Z)/Ohm	-Im(Z)/Ohm	|Z|/Ohm	Phase(Z)/deg	time/s	<Ewe>/V	<I>/mA	Cs/µF	Cp/µF	cycle number	I Range	|Ewe|/V	|I|/A	(Q-Qo)/mA.h	Analog OUT/V	Analog IN 1/V	Re(Y)/Ohm-1	Im(Y)/Ohm-1	|Y|/Ohm-1	Phase(Y)/deg	dq/mA.h
1.00002e+06	60.5052	20.6884	63.9445	-18.8769	1.64649	-0.0119508	0.00171508	0.00769283	0.000805253	1	11	0.00106115	1.65949e-05	3.82488e-07	0.0000000E+000	-100.102	0.0147975	0.00505965	0.0156386	18.8769	3.82488e-07
794333	63.692	16.4479	65.7815	-14.4798	2.83748	-0.0111904	0.00157625	0.0121817	0.000761589	1	11	0.00293121	4.45598e-05	9.95735e-07	0.0000000E+000	-100.086	0.014719	0.00380105	0.0152018	14.4798	2.26201e-07
630957	68.0912	13.798	69.4752	-11.4553	4.02848	-0.010641	0.0015809	0.0182812	0.000721071	1	11	0.00663983	9.55713e-05	1.50678e-06	0.0000000E+000	-100.102	0.0141069	0.00285863	0.0143936	11.4553	1.8637e-07
501206	71.3017	11.9887	72.3025	-9.54449	5.22147	-0.0102784	0.00178403	0.0264869	0.000728232	1	11	0.0125268	0.000173255	2.12651e-06	0.0000000E+000	-100.15	0.0136393	0.00229333	0.0138308	9.54449	1.77316e-07
398103	73.5235	10.4152	74.2576	-8.06273	6.41249	-0.0101238	0.00172791	0.0383847	0.000755108	1	11	0.0208037	0.000280156	2.39822e-06	0.0000000E+000	-100.062	0.0133335	0.00188879	0.0134666	8.06273	2.97682e-07
316230	74.9989	9.06046	75.5442	-6.8884	7.60549	-0.0101133	0.00180764	0.0555478	0.000799033	1	11	0.0317086	0.000419735	4.39199e-06	0.0000000E+000	-100.078	0.0131417	0.00158762	0.0132373	6.8884	1.22601e-06
251188	75.9433	7.88079	76.3511	-5.92449	8.79849	-0.0101405	0.00163164	0.0803992	0.000856566	1	11	0.0457333	0.000598986	5.50888e-06	0.0000000E+000	-100.094	0.0130274	0.00135188	0.0130974	5.92449	1.86347e-07
199544	76.5014	6.96288	76.8176	-5.20053	9.99148	-0.010153	0.00154152	0.11455	0.000941131	1	11	0.0631173	0.000821652	6.80692e-06	0.0000000E+000	-100.07	0.0129643	0.00117996	0.0130178	5.20053	1.3804e-06
158486	76.8568	6.33972	77.1179	-4.7155	11.1825	-0.0101185	0.00154449	0.158401	0.0010705	1	11	0.0836228	0.00108435	8.43744e-06	0.0000000E+000	-100.094	0.0129233	0.00106601	0.0129672	4.7155	8.69963e-07
125909	77.084	6.00789	77.3178	-4.4566	12.3745	-0.0101252	0.00155956	0.210397	0.00127036	1	11	0.107229	0.00138686	6.45164e-06	0.0000000E+000	-100.07	0.0128945	0.00100499	0.0129336	4.4566	-1.23022e-06
100004	77.2641	5.95137	77.4929	-4.40459	13.2935	-0.0101089	0.00162573	0.267416	0.00157724	1	11	0.134889	0.00174067	4.23967e-06	0.0000000E+000	-100.126	0.0128663	0.000991044	0.0129044	4.40459	-1.43855e-06
79433.3	77.3918	6.16799	77.6372	-4.55674	14.4835	-0.0100028	0.00176233	0.324843	0.00205032	1	11	0.129685	0.0016704	7.64606e-07	0.0000000E+000	-100.086	0.0128397	0.0010233	0.0128804	4.55674	2.68024e-07
63093.8	77.5052	6.6822	77.7927	-4.92764	15.6745	-0.00995285	0.00176066	0.377497	0.00278532	1	11	0.129579	0.00166569	3.09516e-06	0.0000000E+000	-100.078	0.0128072	0.00110419	0.0128547	4.92764	3.11974e-07
50122.5	77.6195	7.50334	77.9813	-5.52153	16.8645	-0.00992429	0.00171568	0.423187	0.00391797	1	11	0.129461	0.00166016	6.98571e-06	0.0000000E+000	-100.126	0.0127641	0.00123388	0.0128236	5.52153	7.31944e-07
39814.1	77.7443	8.68157	78.2275	-6.37172	18.0565	-0.00988796	0.00167684	0.460453	0.00567104	1	11	0.129365	0.00165371	7.79145e-06	0.0000000E+000	-100.11	0.0127043	0.00141866	0.0127832	6.37172	-6.46579e-07
31621.1	77.918	10.2795	78.5931	-7.51545	19.1115	-0.00985848	0.00183871	0.489634	0.00837615	1	11	0.13037	0.0016588	7.23378e-06	0.0000000E+000	-100.102	0.0126145	0.00166419	0.0127238	7.51545	-4.46565e-07
25116.9	78.1454	12.3577	79.1165	-8.98615	20.1675	-0.00984424	0.00166829	0.512764	0.01251	1	11	0.130053	0.00164382	4.74805e-06	0.0000000E+000	-100.086	0.0124845	0.00197425	0.0126396	8.98615	-1.14968e-06
19948.8	78.4555	15.0072	79.8779	-10.8289	21.2225	-0.00983246	0.00178612	0.531623	0.0187651	1	11	0.12959	0.00162235	5.74695e-06	0.0000000E+000	-100.062	0.0122962	0.00235205	0.0125191	10.8289	-5.09504e-07
15847.7	78.8862	18.3518	80.9928	-13.0962	22.1415	-0.00983518	0.00172591	0.547236	0.0280958	1	11	0.140399	0.00173348	8.4382e-06	0.0000000E+000	-100.07	0.0120257	0.00279761	0.0123468	13.0962	1.18042e-06
12590.9	79.4588	22.5257	82.59	-15.8274	23.1965	-0.00983123	0.00170583	0.561158	0.0417432	1	11	0.133054	0.00161102	8.8402e-06	0.0000000E+000	-100.07	0.011649	0.00330235	0.012108	15.8274	-7.21065e-07
10002.2	80.2476	27.7136	84.8983	-19.0524	24.1155	-0.00982998	0.00165305	0.574156	0.0611813	1	11	0.137947	0.00162485	9.89906e-06	0.0000000E+000	-100.03	0.0111336	0.00384499	0.0117788	19.0524	1.80905e-06
7944	81.3064	34.1208	88.1757	-22.7657	25.278	-0.00979663	0.00187439	0.587168	0.0879228	1	11	0.129324	0.00146666	8.24968e-06	0.0000000E+000	-100.054	0.0104575	0.00438854	0.011341	22.7657	-1.77506e-06
6307.73	82.7321	42.0031	92.7839	-26.9169	26.4896	-0.00977625	0.00187532	0.600711	0.123107	1	11	0.130566	0.0014072	8.92392e-06	0.0000000E+000	-100.078	0.00961012	0.00487905	0.0107777	26.9169	1.643e-06
5011.6	84.6161	51.6083	99.1126	-31.3795	27.9507	-0.00977275	0.00187977	0.615352	0.166842	1	11	0.130823	0.00131994	9.97191e-06	0.0000000E+000	-100.07	0.00861381	0.00525367	0.0100895	31.3795	2.56709e-07
3981.27	87.0927	63.3052	107.669	-36.0123	29.4707	-0.00976059	0.00200837	0.631479	0.2183	1	11	0.130483	0.00121189	1.14789e-05	0.0000000E+000	-100.062	0.00751273	0.00546079	0.0092877	36.0123	1.21741e-06
[...]
1258.79	114.188	170.201	204.956	-56.1423	37.072	-0.00977167	0.00193606	0.742857	0.512277	1	11	0.127415	0.000621669	1.53276e-05	0.0000000E+000	-100.07	0.00271829	0.00405171	0.00487909	56.1423	-6.24331e-08
1000.32	123.939	206.236	240.612	-58.9959	38.5897	-0.00976507	0.00190038	0.771465	0.566775	1	11	0.127086	0.000528176	1.59472e-05	0.0000000E+000	-100.11	0.00214078	0.00356229	0.00415606	58.9959	-1.65536e-08
794.238	135.704	249.792	284.274	-61.4861	40.108	-0.00977359	0.00191673	0.802215	0.619404	1	11	0.126834	0.000446166	1.67412e-05	0.0000000E+000	-100.054	0.00167926	0.00309104	0.00351773	61.4861	7.11032e-07
631.01	149.779	302.282	337.354	-63.6418	41.8804	-0.00977854	0.00019212	0.834396	0.66992	1	12	0.13016	0.000385824	1.63991e-05	0.0000000E+000	-100.102	0.00131607	0.00265607	0.00296424	63.6418	1.24082e-07
501.444	166.617	365.533	401.716	-65.4955	43.3942	-0.00977517	0.000171549	0.868303	0.718929	1	12	0.128897	0.000320866	1.66287e-05	0.0000000E+000	-100.062	0.00103248	0.00226511	0.00248932	65.4955	-1.39017e-07
398.089	186.655	442.403	480.167	-67.1246	44.9137	-0.00977413	0.000180443	0.903695	0.767138	1	12	0.128034	0.000266645	1.69387e-05	0.0000000E+000	-100.07	0.000809569	0.00191882	0.00208261	67.1246	-4.14465e-09
316.316	210.256	535.148	574.97	-68.5505	46.4299	-0.00977694	0.000192302	0.940212	0.814484	1	12	0.127451	0.000221666	1.70348e-05	0.0000000E+000	-100.03	0.000636	0.00161876	0.00173922	68.5505	2.24513e-07
251.044	238.324	648.288	690.706	-69.8155	47.9409	-0.00977595	0.000173894	0.977917	0.861491	1	12	0.127066	0.000183965	1.70912e-05	0.0000000E+000	-100.07	0.000499552	0.00135888	0.00144779	69.8155	2.48691e-07
199.553	270.964	785.025	830.473	-70.957	49.4652	-0.00977338	0.000188906	1.01596	0.907808	1	12	0.126805	0.00015269	1.73326e-05	0.0000000E+000	-100.062	0.000392881	0.00113824	0.00120413	70.957	3.28754e-08
158.428	309.336	952.152	1001.14	-72.002	50.9997	-0.00976531	0.000169043	1.05507	0.954341	1	12	0.126627	0.000126483	1.73811e-05	0.0000000E+000	-100.054	0.000308632	0.000949984	0.000998861	72.002	1.06109e-07
125.846	353.963	1155.79	1208.78	-72.9727	52.5084	-0.00976473	0.000175906	1.09421	1.00039	1	12	0.12651	0.00010466	1.74525e-05	0.0000000E+000	-100.118	0.00024225	0.000791018	0.000827282	72.9727	1.34109e-07
100.032	406.171	1403.91	1461.49	-73.8641	54.0137	-0.00976745	0.000161732	1.13329	1.04576	1	12	0.126437	8.65128e-05	1.76394e-05	0.0000000E+000	-100.078	0.00019016	0.000657279	0.000684235	73.8641	4.06716e-08
79.4155	467.774	1709.34	1772.19	-74.6953	55.5452	-0.00977403	0.000194014	1.17243	1.09075	1	12	0.126391	7.1319e-05	1.7737e-05	0.0000000E+000	-100.102	0.000148942	0.000544263	0.000564274	74.6953	1.21351e-07
63.0823	538.973	2083.27	2151.86	-75.4948	57.0768	-0.00976686	0.000185658	1.21106	1.13509	1	12	0.126354	5.87183e-05	1.77758e-05	0.0000000E+000	-100.11	0.000116396	0.000449901	0.000464714	75.4948	3.56587e-08
50.1444	623.069	2543.92	2619.12	-76.2378	58.8282	-0.00976337	2.2182e-05	1.24765	1.17704	1	13	0.126717	4.83814e-05	1.78422e-05	0.0000000E+000	-100.086	9.08294e-05	0.000370847	0.000381808	76.2378	5.68943e-08
39.8089	723.043	3110.2	3193.14	-76.9126	60.3547	-0.00976605	2.06959e-05	1.28544	1.21953	1	13	0.126561	3.96351e-05	1.78177e-05	0.0000000E+000	-100.078	7.09134e-05	0.000305037	0.000313171	76.9126	-2.85381e-08
31.6296	841.03	3807.2	3898.99	-77.5431	61.8295	-0.00976602	1.57829e-05	1.32166	1.26017	1	13	0.126467	3.24359e-05	1.78969e-05	0.0000000E+000	-100.086	5.53232e-05	0.000250439	0.000256477	77.5431	4.25344e-08