Folder: ImpedanceFitter/data (part 11)

File: DE_49_7_30.mpt
EC-Lab ASCII FILE
Nb header lines : 75

Potentio Electrochemical Impedance Spectroscopy

Run on channel : 3 (SN 20921)
User :
CE vs. WE compliance from -10 V to 10 V
Electrode connection : standard
Ewe ctrl range : min = -10.00 V, max = 10.00 V
Safety Limits :
	Do not start on E overload
Acquisition started on : 01/22/2020 09:36:27
Technique started on : 01/22/2020 09:36:28
Saved on :
	File : DE_49_7_30.mpr
	Directory : P:\Chemistry\Data\VMP3\Kyler\DOE\DE_49\30C\
	Host : 10.0.4.99
Device : VMP3 (SN 0183)
Address : USB
EC-Lab for windows v11.33 (software)
Internet server v11.32 (firmware)
Command interpretor v11.33 (firmware)
Electrode material :
Initial state :
Electrolyte :
Comments :
Electrode surface area : 0.001 cm²
Characteristic mass : 0.001 g
Equivalent Weight : 0.000 g/eq.
Density : 0.000 g/cm3
Record Analogic IN 1
Cycle Definition : Charge/Discharge alternance
External device configuration :
   device type : Thermostat
   device name : Other
   Analog OUT :
      mode : E/V
      unit : T/°C
      max : 400.000 at 5.000 V
      min : -100.000 at 0.000 V
      current : 0.000
   Analog IN 1 :
      unit : T/°C
      max : 400.000 at 5.000 V
      min : -100.000 at 0.000 V
Mode                Single sine
E (V)               0.0000
vs.                 Eoc
tE (h:m:s)          0:00:0.0000
record              0
dI                  1.000
unit dI             mA
dt (s)              0.000
fi                  1.000
unit fi             MHz
ff                  1.000
unit ff             Hz
Nd                  20
Points              per decade
spacing             Logarithmic
Va (mV)             128.0
pw                  0.50
Na                  3
corr                0
E range min (V)     -10.000
E range max (V)     10.000
I Range             Auto
Bandwidth           5
nc cycles           0
goto Ns'            0
nr cycles           0
inc. cycle          1

freq/Hz	Re(Z)/Ohm	-Im(Z)/Ohm	|Z|/Ohm	Phase(Z)/deg	time/s	<Ewe>/V	<I>/mA	Cs/µF	Cp/µF	cycle number	I Range	|Ewe|/V	|I|/A	(Q-Qo)/mA.h	Analog OUT/V	Analog IN 1/V	Re(Y)/Ohm-1	Im(Y)/Ohm-1	|Y|/Ohm-1	Phase(Y)/deg	dq/mA.h
1.00002e+06	91.0738	291.811	305.693	-72.6669	1.64647	-0.017024	0.00253649	0.000545394	0.000496985	1	11	0.000487183	1.5937e-06	4.7891e-07	0.0000000E+000	-100.088	0.000974592	0.00312271	0.00327126	72.6669	4.7891e-07
707950	131.234	377.797	399.941	-70.8445	3.43449	-0.0159563	0.00257414	0.000595058	0.000530988	1	11	0.00779204	1.9483e-05	1.62838e-06	0.0000000E+000	-100.096	0.000820454	0.00236193	0.00250037	70.8445	3.72439e-07
501206	236.666	507.308	559.797	-64.9903	5.52747	-0.015365	0.000280132	0.000625939	0.000514061	1	12	0.0122975	2.19678e-05	2.82176e-06	0.0000000E+000	-100.112	0.000755224	0.00161887	0.00178636	64.9903	3.31829e-07
354810	316.586	656.458	728.81	-64.2537	7.31549	-0.0152069	0.000294805	0.000683309	0.000554374	1	12	0.0292234	4.00973e-05	2.87813e-06	0.0000000E+000	-100.128	0.000596023	0.00123589	0.0013721	64.2537	9.51809e-10
251188	422.285	837.336	937.793	-63.2373	9.10147	-0.0152118	0.000295477	0.000756697	0.000603264	1	12	0.0571217	6.09108e-05	2.99815e-06	0.0000000E+000	-100.096	0.000480166	0.000952106	0.00106633	63.2373	8.20334e-08
177832	557.796	1050.27	1189.21	-62.0274	10.8905	-0.0151673	0.000306626	0.000852135	0.000664659	1	12	0.101023	8.49503e-05	3.2111e-06	0.0000000E+000	-100.12	0.000394423	0.000742657	0.000840897	62.0274	3.62328e-08
125909	716.07	1305.27	1488.79	-61.2508	12.5415	-0.0150893	0.000264845	0.000968417	0.000744386	1	12	0.130378	8.75737e-05	3.46135e-06	0.0000000E+000	-100.072	0.000323066	0.000588892	0.000671689	61.2508	1.80396e-07
89129.3	897.541	1628.93	1859.84	-61.1453	14.3295	-0.0150213	0.000279536	0.00109622	0.000840914	1	12	0.130304	7.00619e-05	3.59642e-06	0.0000000E+000	-100.08	0.000259479	0.000470925	0.00053768	61.1453	-6.79085e-08
63093.8	1095.02	2042.44	2317.47	-61.8027	16.1165	-0.0149708	0.000283003	0.00123505	0.000959305	1	12	0.129533	5.58943e-05	3.79469e-06	0.0000000E+000	-100.104	0.00020389	0.000380297	0.000431506	61.8027	8.145e-09
44666.7	1331.89	2601.57	2922.68	-62.8895	17.7675	-0.0149606	0.000276925	0.00136962	0.00108519	1	12	0.129834	4.44227e-05	3.86472e-06	0.0000000E+000	-100.096	0.000155921	0.000304559	0.000342151	62.8895	1.96206e-08
31621.1	1622.11	3348.72	3720.91	-64.1546	19.2825	-0.0149448	0.00027933	0.00150302	0.00121737	1	12	0.129634	3.48394e-05	4.01007e-06	0.0000000E+000	-100.096	0.000117161	0.000241869	0.000268751	64.1546	9.98299e-09
22389	1992.92	4364.82	4798.27	-65.4591	20.8275	-0.0149497	2.16435e-05	0.00162862	0.00134767	1	13	0.135657	2.82721e-05	4.09226e-06	0.0000000E+000	-100.104	8.65609e-05	0.000189582	0.000208409	65.4591	2.74058e-08
15847.7	2498.54	5716.43	6238.61	-66.3908	22.4785	-0.0149212	2.44574e-05	0.00175683	0.00147504	1	13	0.129476	2.0754e-05	4.14666e-06	0.0000000E+000	-100.056	6.41965e-05	0.000146875	0.000160292	66.3908	-1.98147e-08
11217.7	3205.29	7516.13	8171.05	-66.904	23.8575	-0.0149282	2.33446e-05	0.00188765	0.00159718	1	13	0.125527	1.53624e-05	4.16463e-06	0.0000000E+000	-100.096	4.80077e-05	0.000112574	0.000122383	66.904	-7.8006e-09
7944	4235.33	9895	10763.3	-66.8278	25.326	-0.0149191	2.90548e-05	0.00202472	0.00171121	1	13	0.117761	1.0941e-05	4.17653e-06	0.0000000E+000	-100.08	3.6559e-05	8.54129e-05	9.29081e-05	66.8278	-5.18779e-09
5621.06	5814.76	12998.7	14240	-65.8994	27.4232	-0.0148858	2.74483e-05	0.00217822	0.00181502	1	13	0.124979	8.7766e-06	4.19267e-06	0.0000000E+000	-100.08	2.86755e-05	6.41032e-05	7.02247e-05	65.8994	7.81451e-09
3981.27	8274.91	16898.6	18815.9	-63.9099	29.7027	-0.0148834	2.72358e-05	0.00236563	0.0019081	1	13	0.121726	6.4693e-06	4.21634e-06	0.0000000E+000	-100.056	2.3373e-05	4.77312e-05	5.31467e-05	63.9099	8.19663e-09
2817.3	12148.9	21519.5	24712	-60.5529	31.9829	-0.0148738	2.61156e-05	0.00262516	0.00199068	1	13	0.119956	4.85415e-06	4.24118e-06	0.0000000E+000	-100.056	1.98939e-05	3.52383e-05	4.04661e-05	60.5529	5.91531e-09
1995.64	18006.2	26288.6	31864	-55.591	34.2627	-0.0148752	2.89652e-05	0.00303369	0.00206493	1	13	0.119013	3.73502e-06	4.25519e-06	0.0000000E+000	-100.04	1.77347e-05	2.58921e-05	3.13834e-05	55.591	6.75916e-09
1411.84	26253.1	30278.2	40074.9	-49.0727	36.7942	-0.0148812	2.06499e-06	0.0037231	0.0021253	1	14	0.122708	3.06197e-06	4.26661e-06	0.0000000E+000	-100.072	1.63469e-05	1.88532e-05	2.49533e-05	49.0727	-1.02501e-09
1000.32	36038.1	32155.4	48298.1	-41.7413	39.0717	-0.0148765	2.46646e-06	0.00494798	0.00219318	1	14	0.120493	2.49478e-06	4.26655e-06	0.0000000E+000	-100.08	1.5449e-05	1.37846e-05	2.07047e-05	41.7413	-8.78786e-10
707.509	45963.3	31231.1	55569.8	-34.1953	41.3524	-0.0148794	2.15502e-06	0.00720279	0.00227508	1	14	0.119311	2.14706e-06	4.26682e-06	0.0000000E+000	-100.088	1.48845e-05	1.01137e-05	1.79954e-05	34.1953	3.25933e-10
501.444	54242.6	28146.1	61110.3	-27.4244	43.6242	-0.0148894	2.22533e-06	0.0112766	0.00239214	1	14	0.118701	1.9424e-06	4.26796e-06	0.0000000E+000	-100.072	1.45249e-05	7.53684e-06	1.63639e-05	27.4244	-1.05358e-09
354.66	60283.4	24343.3	65013	-21.9896	45.904	-0.0148861	2.27232e-06	0.0184344	0.00258457	1	14	0.118379	1.82085e-06	4.27238e-06	0.0000000E+000	-100.096	1.42626e-05	5.75943e-06	1.53815e-05	21.9896	1.34892e-09
251.044	64337.8	21081.6	67703.6	-18.1425	48.1729	-0.0148818	2.63688e-06	0.0300722	0.00291575	1	14	0.11822	1.74614e-06	4.27108e-06	0.0000000E+000	-100.08	1.4036e-05	4.59917e-06	1.47703e-05	18.1425	-1.5113e-09
177.781	67152	19013.2	69791.8	-15.8087	50.4652	-0.0148868	2.36574e-06	0.0470847	0.00349446	1	14	0.118131	1.69262e-06	4.27153e-06	0.0000000E+000	-100.056	1.37864e-05	3.90342e-06	1.43283e-05	15.8087	1.53702e-09
125.846	69375.5	18261.8	71738.8	-14.7475	52.7404	-0.0148894	2.61804e-06	0.0692531	0.00448762	1	14	0.118089	1.64609e-06	4.27217e-06	0.0000000E+000	-100.08	1.34803e-05	3.54841e-06	1.39395e-05	14.7475	-9.34383e-10
89.116	71580.4	18928.5	74040.8	-14.8121	55.0127	-0.0148869	2.35921e-06	0.0943515	0.00616648	1	14	0.118063	1.59456e-06	4.27291e-06	0.0000000E+000	-100.04	1.30572e-05	3.45281e-06	1.35061e-05	14.8121	1.75221e-09
63.0823	74053.9	20854.3	76934.3	-15.7277	57.3088	-0.0148858	2.66895e-06	0.120981	0.0088893	1	14	0.11804	1.5343e-06	4.27376e-06	0.0000000E+000	-100.056	1.25115e-05	3.52334e-06	1.29981e-05	15.7277	5.70788e-10
44.6712	77120.8	23950.5	80754.2	-17.2526	59.5742	-0.0148869	2.51287e-06	0.148757	0.0130851	1	14	0.118033	1.46163e-06	4.277e-06	0.0000000E+000	-100.104	1.18261e-05	3.67269e-06	1.23833e-05	17.2526	5.74299e-10
31.6296	80928.1	28171.8	85691.3	-19.1935	61.8114	-0.0148955	1.67222e-06	0.178613	0.0193049	1	14	0.118022	1.3773e-06	4.27982e-06	0.0000000E+000	-100.08	1.10211e-05	3.83655e-06	1.16698e-05	19.1935	1.80493e-09
22.3854	85656.8	33510.8	91978.6	-21.3665	64.0594	-0.0148924	2.08731e-06	0.212164	0.0281622	1	14	0.118017	1.2831e-06	4.28016e-06	0.0000000E+000	-100.08	1.01248e-05	3.96106e-06	1.08721e-05	21.3665	-4.3565e-10
15.8576	91360.4	40093.5	99770.8	-23.6943	66.3879	-0.0148927	2.01122e-06	0.250328	0.040425	1	14	0.118011	1.18282e-06	4.28497e-06	0.0000000E+000	-100.088	9.17806e-06	4.02779e-06	1.0023e-05	23.6943	6.06077e-09
11.2249	98099.8	48117.1	109265	-26.1275	68.7649	-0.0148967	2.04777e-06	0.294673	0.0571448	1	14	0.118008	1.08002e-06	4.28631e-06	0.0000000E+000	-100.112	8.21687e-06	4.0303e-06	9.15207e-06	26.1275	6.2709e-09
7.93953	106008	58162.5	120916	-28.7518	71.3087	-0.0148873	2.21075e-06	0.344653	0.0797446	1	14	0.118003	9.75908e-07	4.28693e-06	0.0000000E+000	-100.064	7.25059e-06	3.9781e-06	8.27021e-06	28.7518	3.37903e-09
5.6205	115400	70469.8	135215	-31.4106	73.1737	-0.0149007	-2.01903e-07	0.40183	0.109143	1	14	0.118002	8.72697e-07	4.27875e-06	0.0000000E+000	-100.072	6.31183e-06	3.85437e-06	7.39563e-06	31.4106	-3.34445e-09
3.97785	126016	86021.5	152577	-34.3185	75.7092	-0.0148934	3.26323e-06	0.465119	0.147844	1	14	0.117999	7.73375e-07	4.29185e-06	0.0000000E+000	-100.08	5.41313e-06	3.69514e-06	6.55408e-06	34.3185	-1.93549e-09
2.81836	138626	105942	174473	-37.3881	79.2087	-0.0148853	2.3878e-06	0.533035	0.196533	1	14	0.117998	6.76313e-07	4.29712e-06	0.0000000E+000	-100.048	4.55395e-06	3.48026e-06	5.73155e-06	37.3881	6.37411e-09
1.99706	153160	131098	201605	-40.562	84.0706	-0.014881	2.03205e-06	0.607902	0.257053	1	14	0.118001	5.85306e-07	4.29203e-06	0.0000000E+000	-100.032	3.76827e-06	3.22547e-06	4.9602e-06	40.562	-7.77395e-09
1.41224	170410	164030	236528	-43.9072	90.8782	-0.0148727	2.18772e-06	0.687051	0.330424	1	14	0.117998	4.98876e-07	4.28137e-06	0.0000000E+000	-100.056	3.046e-06	2.93197e-06	4.22784e-06	43.9072	-2.72759e-08
1.00006	190268	206537	280820	-47.3478	100.424	-0.0148726	2.69738e-06	0.770538	0.416808	1	14	0.117999	4.20195e-07	4.3114e-06	0.0000000E+000	-100.08	2.41275e-06	2.61905e-06	3.561e-06	47.3478	2.19793e-08

File: DE_49_8_30.mpt
EC-Lab ASCII FILE
Nb header lines : 75

Potentio Electrochemical Impedance Spectroscopy

Run on channel : 4 (SN 4192)
User :
CE vs. WE compliance from -10 V to 10 V
Electrode connection : standard
Ewe ctrl range : min = -10.00 V, max = 10.00 V
Safety Limits :
	Do not start on E overload
Acquisition started on : 01/22/2020 09:36:11
Technique started on : 01/22/2020 09:36:12
Saved on :
	File : DE_49_8_30.mpr
	Directory : P:\Chemistry\Data\VMP3\Kyler\DOE\DE_49\30C\
	Host : 10.0.4.99
Device : VMP3 (SN 0183)
Address : USB
EC-Lab for windows v11.33 (software)
Internet server v11.32 (firmware)
Command interpretor v11.33 (firmware)
Electrode material :
Initial state :
Electrolyte :
Comments :
Electrode surface area : 0.001 cm²
Characteristic mass : 0.001 g
Equivalent Weight : 0.000 g/eq.
Density : 0.000 g/cm3
Record Analogic IN 1
Cycle Definition : Charge/Discharge alternance
External device configuration :
   device type : Thermostat
   device name : Other
   Analog OUT :
      mode : E/V
      unit : T/°C
      max : 400.000 at 5.000 V
      min : -100.000 at 0.000 V
      current : 0.000
   Analog IN 1 :
      unit : T/°C
      max : 400.000 at 5.000 V
      min : -100.000 at 0.000 V
Mode                Single sine
E (V)               0.0000
vs.                 Eoc
tE (h:m:s)          0:00:0.0000
record              0
dI                  1.000
unit dI             mA
dt (s)              0.000
fi                  1.000
unit fi             MHz
ff                  1.000
unit ff             Hz
Nd                  20
Points              per decade
spacing             Logarithmic
Va (mV)             128.0
pw                  0.50
Na                  3
corr                0
E range min (V)     -10.000
E range max (V)     10.000
I Range             Auto
Bandwidth           5
nc cycles           0
goto Ns'            0
nr cycles           0
inc. cycle          1

freq/Hz	Re(Z)/Ohm	-Im(Z)/Ohm	|Z|/Ohm	Phase(Z)/deg	time/s	<Ewe>/V	<I>/mA	Cs/µF	Cp/µF	cycle number	I Range	|Ewe|/V	|I|/A	(Q-Qo)/mA.h	Analog OUT/V	Analog IN 1/V	Re(Y)/Ohm-1	Im(Y)/Ohm-1	|Y|/Ohm-1	Phase(Y)/deg	dq/mA.h
1.00002e+06	79.6847	298.381	308.838	-75.0477	1.95148	-0.00538346	0.00314245	0.000533386	0.000497877	1	11	0.00202965	6.57188e-06	9.08067e-07	0.0000000E+000	-100.161	0.000835439	0.00312831	0.00323795	75.0477	9.08067e-07
707950	120.372	384.309	402.719	-72.6086	3.73848	-0.00483136	0.00378399	0.000584975	0.000532713	1	11	0.000633757	1.57369e-06	2.63346e-06	0.0000000E+000	-100.113	0.0007422	0.0023696	0.00248312	72.6086	6.20817e-07
501206	211.287	501.318	544.024	-67.1464	5.83048	-0.00461865	0.000563587	0.000633418	0.000537875	1	12	0.00630966	1.15981e-05	4.65549e-06	0.0000000E+000	-100.121	0.000713899	0.00169386	0.00183815	67.1464	6.60985e-07
354810	283.486	659.771	718.096	-66.7481	7.61549	-0.00450683	0.000559508	0.000679879	0.000573922	1	12	0.0217894	3.03434e-05	4.94114e-06	0.0000000E+000	-100.145	0.000549752	0.00127946	0.00139257	66.7481	8.58802e-08
251188	384.398	857.29	939.526	-65.8491	9.40047	-0.00448678	0.000572045	0.000739084	0.000615364	1	12	0.0496342	5.2829e-05	5.2628e-06	0.0000000E+000	-100.153	0.000435476	0.000971204	0.00106437	65.8491	6.89691e-08
177832	514.529	1087.5	1203.08	-64.6798	11.1875	-0.00453216	0.000506065	0.000822963	0.000672437	1	12	0.0945079	7.85549e-05	5.06677e-06	0.0000000E+000	-100.153	0.000355485	0.000751348	0.0008312	64.6798	-8.09393e-08
125909	667.301	1370.94	1524.72	-64.0456	12.8395	-0.00445695	0.000525419	0.000922028	0.000745421	1	12	0.131117	8.59944e-05	5.20319e-06	0.0000000E+000	-100.105	0.00028704	0.000589711	0.000655859	64.0456	9.98496e-08
89129.3	842.459	1734.72	1928.46	-64.0966	14.6255	-0.00446624	0.000521209	0.00102937	0.000832923	1	12	0.130354	6.75948e-05	5.21251e-06	0.0000000E+000	-100.016	0.00022653	0.00046645	0.000518547	64.0966	1.88983e-07
63093.8	1040.15	2207.01	2439.84	-64.7659	16.4135	-0.00443835	0.000522419	0.00114295	0.000935226	1	12	0.129504	5.30789e-05	5.47996e-06	0.0000000E+000	-100.097	0.000174732	0.000370752	0.000409864	64.7659	1.60384e-07
44666.7	1275.4	2839.35	3112.64	-65.811	17.9285	-0.00447002	0.000458991	0.00125492	0.00104423	1	12	0.137417	4.4148e-05	5.58352e-06	0.0000000E+000	-100.081	0.00013164	0.000293063	0.00032127	65.811	3.32335e-08
31621.1	1569.43	3690.8	4010.63	-66.9635	19.4435	-0.0043975	0.000537061	0.00136371	0.00115489	1	12	0.136422	3.40151e-05	5.80169e-06	0.0000000E+000	-100.161	9.75702e-05	0.000229454	0.000249338	66.9635	7.61923e-08
22389	1988.6	4850.87	5242.66	-67.709	21.1245	-0.00431788	3.92476e-05	0.00146543	0.00125459	1	13	0.130493	2.48906e-05	5.83024e-06	0.0000000E+000	-100.129	7.23509e-05	0.000176489	0.000190743	67.709	-2.23116e-08
15847.7	2516.8	6400.92	6877.94	-68.5356	22.6405	-0.00431406	3.97299e-05	0.00156896	0.00135888	1	13	0.13564	1.9721e-05	5.87137e-06	0.0000000E+000	-100.177	5.32025e-05	0.000135309	0.000145392	68.5356	2.23882e-08
11217.7	3263.86	8475.98	9082.67	-68.9397	24.0195	-0.00430785	3.93648e-05	0.00167389	0.00145773	1	13	0.128693	1.41691e-05	5.88955e-06	0.0000000E+000	-100.113	3.95644e-05	0.000102745	0.0001101	68.9397	-1.59361e-09
7944	4353.77	11206.8	12022.8	-68.7691	25.487	-0.00430543	5.11185e-05	0.00178773	0.00155329	1	13	0.120907	1.00565e-05	5.91936e-06	0.0000000E+000	-100.201	3.01202e-05	7.75304e-05	8.31756e-05	68.7691	2.06546e-09
5621.06	6052.93	14828.2	16016	-67.7945	27.3993	-0.00426629	5.27835e-05	0.00190948	0.00163674	1	13	0.116036	7.24497e-06	5.95222e-06	0.0000000E+000	-100.137	2.3597e-05	5.78068e-05	6.24375e-05	67.7945	1.42117e-08
3981.27	8722.84	19419.8	21288.9	-65.8117	29.9007	-0.00426661	5.126e-05	0.00205852	0.00171292	1	13	0.125085	5.87562e-06	5.98965e-06	0.0000000E+000	-100.081	1.92466e-05	4.28489e-05	4.69729e-05	65.8117	1.30479e-08
2817.3	12978.9	24969	28140.7	-62.5345	32.1809	-0.00425835	5.08111e-05	0.00226249	0.00178122	1	13	0.12349	4.38829e-06	6.02329e-06	0.0000000E+000	-100.121	1.63895e-05	3.15304e-05	3.55357e-05	62.5345	1.45009e-08
1995.64	19978.8	30855.2	36758.6	-57.0768	34.7107	-0.00426678	5.31421e-06	0.0025847	0.00182116	1	14	0.129695	3.52829e-06	6.04812e-06	0.0000000E+000	-100.064	1.47861e-05	2.28355e-05	2.72045e-05	57.0768	4.75868e-09
1411.84	29279.2	36190	46550.9	-51.0257	36.9912	-0.00426585	4.79287e-06	0.00311492	0.00188264	1	14	0.126053	2.70785e-06	6.0513e-06	0.0000000E+000	-100.129	1.35115e-05	1.67006e-05	2.14819e-05	51.0257	3.5133e-11
1000.32	40854.7	39220.6	56633.6	-43.831	39.2687	-0.00427258	5.28994e-06	0.00405664	0.00194557	1	14	0.124017	2.18982e-06	6.05299e-06	0.0000000E+000	-100.064	1.27378e-05	1.22283e-05	1.76574e-05	43.831	-5.1917e-10
707.509	52996.1	38969.6	65781.6	-36.3281	41.5494	-0.00426249	4.94706e-06	0.00577247	0.00202584	1	14	0.122943	1.86895e-06	6.05463e-06	0.0000000E+000	-100.097	1.22472e-05	9.00569e-06	1.52018e-05	36.3281	9.2291e-10
501.444	63555.5	35924.2	73005.8	-29.4769	43.8212	-0.00427785	5.03441e-06	0.00883508	0.00213929	1	14	0.122383	1.67635e-06	6.05707e-06	0.0000000E+000	-100.081	1.19244e-05	6.74019e-06	1.36975e-05	29.4769	-2.87495e-10
354.66	71568	31731.7	78287.2	-23.9115	46.1009	-0.00427681	4.60305e-06	0.0141421	0.00232338	1	14	0.122099	1.55963e-06	6.06242e-06	0.0000000E+000	-100.073	1.16772e-05	5.17741e-06	1.27735e-05	23.9115	1.47164e-09
251.044	77074.9	28070.2	82027.3	-20.0113	48.3699	-0.00427079	4.77552e-06	0.0225852	0.00264483	1	14	0.12195	1.4867e-06	6.06301e-06	0.0000000E+000	-100.073	1.1455e-05	4.17185e-06	1.21911e-05	20.0113	-6.23603e-10
177.781	81102.8	25782.4	85102.2	-17.6353	50.6622	-0.00428082	4.3708e-06	0.0347225	0.00318695	1	14	0.121874	1.43209e-06	6.06566e-06	0.0000000E+000	-100.081	1.11983e-05	3.55993e-06	1.17506e-05	17.6353	2.05439e-09
125.846	84328.2	25336.5	88052.2	-16.723	52.9364	-0.00426436	4.27749e-06	0.0499154	0.00413284	1	14	0.121823	1.38353e-06	6.06774e-06	0.0000000E+000	-100.137	1.08766e-05	3.26789e-06	1.13569e-05	16.723	-5.99458e-10
89.116	87496.9	26598.5	91450.5	-16.9089	55.2087	-0.00426458	4.64924e-06	0.067144	0.00568002	1	14	0.1218	1.33187e-06	6.07227e-06	0.0000000E+000	-100.113	1.04621e-05	3.18043e-06	1.09349e-05	16.9089	2.49352e-09
63.0823	91148.3	29568.4	95824.4	-17.973	57.5048	-0.00427276	4.88223e-06	0.0853266	0.00812436	1	14	0.121789	1.27097e-06	6.0751e-06	0.0000000E+000	-100.081	9.92651e-06	3.22015e-06	1.04358e-05	17.973	1.64313e-09
44.6712	95705.2	34001.1	101566	-19.5585	59.7692	-0.00427278	4.54251e-06	0.104785	0.0117433	1	14	0.121776	1.19899e-06	6.07845e-06	0.0000000E+000	-100.081	9.27775e-06	3.29609e-06	9.84586e-06	19.5585	1.55011e-09
31.6296	101261	39978.7	108868	-21.5444	62.0064	-0.00428837	5.05674e-06	0.125863	0.016973	1	14	0.12177	1.11851e-06	6.0828e-06	0.0000000E+000	-100.121	8.54371e-06	3.37312e-06	9.18547e-06	21.5444	1.39418e-09
22.3854	108063	47497.8	118041	-23.7274	64.2544	-0.00429195	4.70305e-06	0.149686	0.0242363	1	14	0.12176	1.03151e-06	6.08522e-06	0.0000000E+000	-100.04	7.75556e-06	3.40887e-06	8.47166e-06	23.7274	3.69321e-09
15.8576	116184	56609	129241	-25.977	66.5829	-0.00428074	3.82805e-06	0.177296	0.0340146	1	14	0.121755	9.42078e-07	6.08738e-06	0.0000000E+000	-100.129	6.95574e-06	3.38908e-06	7.73746e-06	25.977	3.96075e-10
11.2249	125808	67874	142949	-28.3471	68.9599	-0.00428177	4.45366e-06	0.208899	0.0470955	1	14	0.121747	8.51679e-07	6.0949e-06	0.0000000E+000	-100.105	6.15665e-06	3.32155e-06	6.9955e-06	28.3471	4.78676e-09
7.93953	136952	81808.1	159525	-30.852	71.5037	-0.00426989	4.5398e-06	0.245035	0.0644409	1	14	0.121757	7.63242e-07	6.09111e-06	0.0000000E+000	-100.064	5.38156e-06	3.21467e-06	6.26859e-06	30.852	-5.66944e-09
5.6205	150023	99209.6	179859	-33.4765	73.3686	-0.00428867	2.91785e-06	0.285425	0.0868426	1	14	0.121746	6.76898e-07	6.09573e-06	0.0000000E+000	-100.081	4.63758e-06	3.06682e-06	5.5599e-06	33.4765	3.82114e-09
3.97785	165236	121201	204921	-36.26	75.9042	-0.00426537	5.13904e-06	0.330116	0.115479	1	14	0.121751	5.94137e-07	6.0966e-06	0.0000000E+000	-100.081	3.93489e-06	2.88624e-06	4.87993e-06	36.26	-8.60535e-09
2.81836	183198	148922	236092	-39.1078	79.4026	-0.00427468	6.19105e-06	0.379196	0.150876	1	14	0.12176	5.1573e-07	6.102e-06	0.0000000E+000	-100.113	3.28669e-06	2.67176e-06	4.23564e-06	39.1078	-1.02527e-08
1.99706	204440	184411	275324	-42.0513	84.2657	-0.00426783	4.53518e-06	0.432158	0.193878	1	14	0.121753	4.42216e-07	6.10296e-06	0.0000000E+000	-100.089	2.69699e-06	2.43276e-06	3.63209e-06	42.0513	-1.543e-08
1.41224	230196	229957	325377	-44.9702	91.0722	-0.0042675	5.5578e-06	0.490078	0.244785	1	14	0.121754	3.74193e-07	6.12013e-06	0.0000000E+000	-100.129	2.17432e-06	2.17206e-06	3.07335e-06	44.9702	5.07357e-09
1.00006	260965	288424	388962	-47.8613	100.618	-0.0042629	4.89676e-06	0.551774	0.303396	1	14	0.121755	3.13025e-07	6.14843e-06	0.0000000E+000	-100.073	1.72492e-06	1.90642e-06	2.57095e-06	47.8613	2.91284e-08