Folder: ImpedanceFitter/data

Note: README.md
# ImpedanceFitter
Using PyEIS library, developed custom Electrochemical Impedance Spectroscopy
Kristian Knudsen Developed the PyEIS library, ALL ORIGINAL PYEIS CODE BELONGS TO HIM
https://github.com/kbknudsen/PyEIS is the link to the original python library
type pip install pyeis in the command prompt to install nessecary libraries

File: DE_40_1_30.mpt
EC-Lab ASCII FILE
Nb header lines : 75

Potentio Electrochemical Impedance Spectroscopy

Run on channel : 1 (SN 20909)
User :
CE vs. WE compliance from -10 V to 10 V
Electrode connection : standard
Ewe ctrl range : min = -10.00 V, max = 10.00 V
Safety Limits :
	Do not start on E overload
Acquisition started on : 01/23/2020 15:13:44
Technique started on : 01/23/2020 15:13:45
Saved on :
	File : DE_40_1_30.mpr
	Directory : P:\Chemistry\Data\VMP3\Kyler\DOE\DE_40\2ND 30C\
	Host : 10.0.4.99
Device : VMP3 (SN 0183)
Address : USB
EC-Lab for windows v11.33 (software)
Internet server v11.32 (firmware)
Command interpretor v11.33 (firmware)
Electrode material :
Initial state :
Electrolyte :
Comments :
Electrode surface area : 0.001 cm²
Characteristic mass : 0.001 g
Equivalent Weight : 0.000 g/eq.
Density : 0.000 g/cm3
Record Analogic IN 1
Cycle Definition : Charge/Discharge alternance
External device configuration :
   device type : Thermostat
   device name : Other
   Analog OUT :
      mode : E/V
      unit : T/°C
      max : 400.000 at 5.000 V
      min : -100.000 at 0.000 V
      current : 0.000
   Analog IN 1 :
      unit : T/°C
      max : 400.000 at 5.000 V
      min : -100.000 at 0.000 V
Mode                Single sine
E (V)               0.0000
vs.                 Eoc
tE (h:m:s)          0:00:0.0000
record              0
dI                  1.000
unit dI             mA
dt (s)              0.000
fi                  1.000
unit fi             MHz
ff                  1.000
unit ff             Hz
Nd                  20
Points              per decade
spacing             Logarithmic
Va (mV)             128.0
pw                  0.50
Na                  3
corr                0
E range min (V)     -10.000
E range max (V)     10.000
I Range             Auto
Bandwidth           5
nc cycles           0
goto Ns'            0
nr cycles           0
inc. cycle          1

freq/Hz	Re(Z)/Ohm	-Im(Z)/Ohm	|Z|/Ohm	Phase(Z)/deg	time/s	<Ewe>/V	<I>/mA	Cs/µF	Cp/µF	cycle number	I Range	|Ewe|/V	|I|/A	(Q-Qo)/mA.h	Analog OUT/V	Analog IN 1/V	Re(Y)/Ohm-1	Im(Y)/Ohm-1	|Y|/Ohm-1	Phase(Y)/deg	dq/mA.h
1.00002e+06	54.0484	150.669	160.07	-70.2659	1.95249	0.143328	0.00293415	0.0010563	0.000935874	1	11	0.0045951	2.87069e-05	6.66746e-07	0.0000000E+000	-100.078	0.00210943	0.00588038	0.00624728	70.2659	6.66746e-07
891247	63.9893	159.153	171.535	-68.0968	2.54749	0.143855	0.00296215	0.00112204	0.000965899	1	11	0.00720812	4.20213e-05	1.1925e-06	0.0000000E+000	-100.11	0.00217472	0.00540891	0.00582972	68.0968	5.25757e-07
794333	74.2585	169.973	185.487	-66.4003	3.14349	0.14428	0.00287704	0.00117879	0.00098986	1	11	0.0109476	5.9021e-05	1.66316e-06	0.0000000E+000	-100.086	0.00215835	0.00494033	0.00539123	66.4003	4.70656e-07
707950	84.5472	182.142	200.808	-65.1001	3.7385	0.144718	0.00288414	0.00123426	0.00101546	1	11	0.0159163	7.92612e-05	2.10656e-06	0.0000000E+000	-100.094	0.0020967	0.00451697	0.00497988	65.1001	4.43397e-07
630957	94.7027	195.641	217.357	-64.17	4.33448	0.145094	0.00291344	0.00128932	0.00104456	1	11	0.0221238	0.000101786	2.64788e-06	0.0000000E+000	-100.07	0.00200455	0.00414108	0.00460074	64.17	5.41322e-07
562342	105.402	210.748	235.636	-63.4289	4.92949	0.14546	0.00301067	0.00134294	0.00107424	1	11	0.0295327	0.000125332	3.19408e-06	0.0000000E+000	-100.07	0.0018983	0.0037956	0.00424383	63.4289	5.46205e-07
501206	116.393	227.02	255.118	-62.8557	5.52649	0.145743	0.00298119	0.00139875	0.0011076	1	11	0.0380549	0.000149166	3.86771e-06	0.0000000E+000	-100.086	0.00178832	0.00348803	0.00391975	62.8557	6.73632e-07
446686	128.024	244.765	276.224	-62.3883	6.12149	0.145998	0.00297503	0.00145569	0.00114299	1	11	0.0476209	0.0001724	4.20787e-06	0.0000000E+000	-100.07	0.0016779	0.00320793	0.00362025	62.3883	3.4015e-07
398103	140.209	263.93	298.861	-62.0213	6.71648	0.146137	0.00293789	0.00151473	0.00118134	1	11	0.0582188	0.000194802	4.95526e-06	0.0000000E+000	-100.046	0.00156977	0.00295496	0.00334604	62.0213	7.47399e-07
354810	153.114	284.287	322.898	-61.6935	7.31249	0.14626	0.00290654	0.00157786	0.00122307	1	11	0.0698562	0.000216342	5.65195e-06	0.0000000E+000	-100.07	0.00146854	0.00272663	0.00309695	61.6935	6.96685e-07
316230	167.042	306.667	349.21	-61.4228	7.90849	0.146341	0.00295991	0.00164116	0.00126564	1	11	0.0826624	0.000236713	6.00597e-06	0.0000000E+000	-100.062	0.00136979	0.00251475	0.00286361	61.4228	3.54019e-07
281835	181.997	330.896	377.644	-61.1886	8.50448	0.146369	0.00297037	0.00170661	0.00131024	1	11	0.0966333	0.000255885	6.97244e-06	0.0000000E+000	-100.118	0.00127615	0.0023202	0.002648	61.1886	9.66474e-07
251188	198.26	356.943	408.307	-60.9505	9.09949	0.146416	0.00292613	0.0017751	0.00135658	1	11	0.111819	0.00027386	7.46096e-06	0.0000000E+000	-100.07	0.00118921	0.00214104	0.00244914	60.9505	4.88513e-07
223872	215.893	385.421	441.768	-60.7447	9.5585	0.146481	0.00288022	0.00184453	0.001404	1	11	0.128213	0.000290228	8.05293e-06	0.0000000E+000	-100.054	0.00110624	0.00197491	0.00226363	60.7447	5.91974e-07
199544	235.139	416.148	477.984	-60.532	10.1555	0.146541	0.00287369	0.00191662	0.00145279	1	11	0.128808	0.000269482	8.80011e-06	0.0000000E+000	-100.07	0.00102919	0.00182146	0.00209212	60.532	7.4718e-07
177832	256.33	449.746	517.664	-60.3193	10.7505	0.146573	0.00284215	0.00198996	0.00150204	1	11	0.129637	0.000250426	9.0333e-06	0.0000000E+000	-100.054	0.000956538	0.0016783	0.00193175	60.3193	2.33192e-07
158486	300.396	489.529	574.349	-58.4649	11.6495	0.146445	0.00113913	0.0020514	0.00149024	1	12	0.0806077	0.000140346	8.84103e-06	0.0000000E+000	-100.094	0.000910633	0.00148398	0.0017411	58.4649	-1.92272e-07
141256	326.865	528.782	621.652	-58.2779	12.2445	0.146468	0.00115833	0.00213077	0.00154169	1	12	0.0968123	0.000155734	8.86293e-06	0.0000000E+000	-100.094	0.000845812	0.0013683	0.00160862	58.2779	2.18956e-08
125909	356.66	571.139	673.354	-58.0164	12.7055	0.146476	0.00114822	0.0022132	0.00159227	1	12	0.116057	0.000172356	8.86371e-06	0.0000000E+000	-100.07	0.000786624	0.00125966	0.0014851	58.0164	7.87801e-10
112205	390.144	616.579	729.645	-57.6761	13.1655	0.146462	0.00112946	0.00230049	0.00164276	1	12	0.138797	0.000190225	8.84255e-06	0.0000000E+000	-100.038	0.000732828	0.00115815	0.00137053	57.6761	-2.116e-08
100004	428.361	665.179	791.174	-57.2193	13.7605	0.146579	0.00112263	0.00239258	0.00169121	1	12	0.131518	0.000166232	9.07997e-06	0.0000000E+000	-100.102	0.000684331	0.00106266	1.

File: DE_40_2_60.mpt
EC-Lab ASCII FILE
Nb header lines : 75

Potentio Electrochemical Impedance Spectroscopy

Run on channel : 2 (SN 20919)
User :
CE vs. WE compliance from -10 V to 10 V
Electrode connection : standard
Ewe ctrl range : min = -10.00 V, max = 10.00 V
Safety Limits :
	Do not start on E overload
Acquisition started on : 01/24/2020 09:45:23
Technique started on : 01/24/2020 09:45:24
Saved on :
	File : DE_40_2_60.mpr
	Directory : P:\Chemistry\Data\VMP3\Kyler\DOE\DE_40\2ND 60C\
	Host : 10.0.4.99
Device : VMP3 (SN 0183)
Address : USB
EC-Lab for windows v11.33 (software)
Internet server v11.32 (firmware)
Command interpretor v11.33 (firmware)
Electrode material :
Initial state :
Electrolyte :
Comments :
Electrode surface area : 0.001 cm²
Characteristic mass : 0.001 g
Equivalent Weight : 0.000 g/eq.
Density : 0.000 g/cm3
Record Analogic IN 1
Cycle Definition : Charge/Discharge alternance
External device configuration :
   device type : Thermostat
   device name : Other
   Analog OUT :
      mode : E/V
      unit : T/°C
      max : 400.000 at 5.000 V
      min : -100.000 at 0.000 V
      current : 0.000
   Analog IN 1 :
      unit : T/°C
      max : 400.000 at 5.000 V
      min : -100.000 at 0.000 V
Mode                Single sine
E (V)               0.0000
vs.                 Eoc
tE (h:m:s)          0:00:0.0000
record              0
dI                  1.000
unit dI             mA
dt (s)              0.000
fi                  1.000
unit fi             MHz
ff                  1.000
unit ff             Hz
Nd                  20
Points              per decade
spacing             Logarithmic
Va (mV)             128.0
pw                  0.50
Na                  3
corr                0
E range min (V)     -10.000
E range max (V)     10.000
I Range             Auto
Bandwidth           5
nc cycles           0
goto Ns'            0
nr cycles           0
inc. cycle          1

freq/Hz	Re(Z)/Ohm	-Im(Z)/Ohm	|Z|/Ohm	Phase(Z)/deg	time/s	<Ewe>/V	<I>/mA	Cs/µF	Cp/µF	cycle number	I Range	|Ewe|/V	|I|/A	(Q-Qo)/mA.h	Analog OUT/V	Analog IN 1/V	Re(Y)/Ohm-1	Im(Y)/Ohm-1	|Y|/Ohm-1	Phase(Y)/deg	dq/mA.h
1.00002e+06	54.5121	12.4676	55.9197	-12.8827	1.64448	-0.0350804	0.00142627	0.0127653	0.00063455	1	11	0.000934828	1.67173e-05	3.4471e-07	0.0000000E+000	-100.11	0.0174327	0.00398707	0.0178828	12.8827	3.4471e-07
707950	57.1932	6.86312	57.6035	-6.84271	3.43249	-0.0340209	0.00148574	0.0327564	0.000464988	1	11	0.00391946	6.8042e-05	1.27749e-06	0.0000000E+000	-100.07	0.0172364	0.00206835	0.0173601	6.84271	1.92092e-07
501206	60.1839	4.94558	60.3868	-4.69769	5.22149	-0.0334031	0.00159967	0.0642076	0.000430663	1	11	0.0108089	0.000178994	1.70417e-06	0.0000000E+000	-100.078	0.0165043	0.00135623	0.0165599	4.69769	-1.75363e-07
354810	61.659	3.87247	61.7805	-3.59372	7.00748	-0.0332515	0.0012382	0.115834	0.000455103	1	11	0.0223929	0.000362459	2.77204e-06	0.0000000E+000	-100.142	0.0161545	0.00101458	0.0161863	3.59372	7.16782e-07
251188	62.2001	3.14481	62.2795	-2.89439	8.79249	-0.0332709	0.00155787	0.201478	0.000513719	1	11	0.039674	0.000637031	3.28349e-06	0.0000000E+000	-100.102	0.0160362	0.000810782	0.0160566	2.89439	1.93935e-07
177832	62.3538	2.72455	62.4133	-2.50195	10.5825	-0.0332787	0.00135567	0.328485	0.000625967	1	11	0.0636736	0.00102019	2.88081e-06	0.0000000E+000	-100.078	0.0160069	0.000699424	0.0160222	2.50195	-1.33819e-08
125909	62.3718	2.63768	62.4276	-2.42157	12.3715	-0.0332542	0.00144862	0.479226	0.000855522	1	11	0.0938761	0.00150376	5.76453e-07	0.0000000E+000	-100.142	0.0160043	0.000676813	0.0160186	2.42157	5.53667e-07
89129.3	62.3845	2.84675	62.4494	-2.61273	13.8865	-0.0332418	0.00130626	0.627264	0.00130344	1	11	0.132158	0.00211625	-1.84925e-06	0.0000000E+000	-100.11	0.0159963	0.000729948	0.016013	2.61273	-1.43092e-07
63093.8	62.3749	3.35839	62.4653	-3.08195	15.6735	-0.0331171	0.00159879	0.751107	0.00217114	1	11	0.129584	0.0020745	-7.71092e-06	0.0000000E+000	-100.134	0.0159857	0.000860705	0.0160089	3.08195	-1.4617e-06
44666.7	62.3731	4.22584	62.5161	-3.87592	17.4625	-0.0330658	0.00153188	0.843185	0.0038527	1	11	0.12942	0.00207018	-3.17325e-06	0.0000000E+000	-100.054	0.0159593	0.00108126	0.0159959	3.87592	-8.1969e-07
31621.1	62.4047	5.5587	62.6518	-5.09019	19.1145	-0.0330313	0.00152779	0.90546	0.00712769	1	11	0.140257	0.00223868	1.33286e-06	0.0000000E+000	-100.062	0.0158983	0.00141614	0.0159612	5.09019	2.04688e-06
22389	62.4896	7.49125	62.937	-6.83599	20.7655	-0.0329796	0.00171066	0.948922	0.0134439	1	11	0.130173	0.00206831	-2.33934e-06	0.0000000E+000	-100.062	0.0157759	0.00189122	0.0158889	6.83599	-3.13728e-06
15847.7	62.6681	10.2366	63.4987	-9.27712	22.2815	-0.0329731	0.00160065	0.981067	0.0254965	1	11	0.135625	0.00213587	-3.47424e-06	0.0000000E+000	-100.038	0.0155424	0.00253879	0.0157484	9.27712	-1.78802e-07
11217.7	62.9844	14.0744	64.5377	-12.5963	23.7955	-0.0329631	0.00164172	1.00806	0.0479421	1	11	0.137124	0.00212472	1.33639e-06	0.0000000E+000	-100.11	0.0151219	0.0033791	0.0154948	12.5963	1.61734e-06
7944	63.5151	19.4031	66.4127	-16.9873	25.406	-0.032936	0.00191212	1.03255	0.0881352	1	11	0.131337	0.00197759	1.3065e-06	0.0000000E+000	-100.086	0.0144004	0.00439915	0.0150574	16.9873	2.34946e-06
5621.06	64.3616	26.7496	69.699	-22.5685	27.3183	-0.0329133	0.00195766	1.05848	0.155907	1	11	0.134533	0.00193019	1.59522e-06	0.0000000E+000	-100.062	0.0132487	0.00550635	0.0143474	22.5685	4.35874e-07
3981.27	65.6712	36.7736	75.2662	-29.2473	29.5967	-0.0329025	0.00210448	1.08708	0.259498	1	11	0.135303	0.00179766	2.11789e-06	0.0000000E+000	-100.11	0.0115924	0.00649136	0.0132862	29.2473	4.75898e-07
2817.3	67.689	50.432	84.4109	-36.6881	31.877	-0.0329151	0.00186157	1.12016	0.39985	1	11	0.134742	0.00159626	2.31752e-06	0.0000000E+000	-100.07	0.00949996	0.00707798	0.0118468	36.6881	1.21913e-06
1995.64	70.6475	68.8439	98.6436	-44.2592	34.1567	-0.032892	0.00209108	1.15844	0.564243	1	11	0.133676	0.00135514	5.02465e-06	0.0000000E+000	-100.102	0.00726038	0.00707502	0.0101375	44.2592	6.53644e-07
1411.84	74.787	93.7866	119.954	-51.4306	36.4382	-0.032914	0.00189166	1.20197	0.734759	1	11	0.132617	0.00110556	5.36952e-06	0.0000000E+000	-100.118	0.0051975	0.00651792	0.00833651	51.4306	-1.44389e-07
1000.32	80.3063	127.326	150.536	-57.7599	38.7157	-0.0329076	0.00198941	1.24958	0.893961	1	11	0.131799	0.000875528	6.24917e-06	0.0000000E+000	-100.11	0.0035438	0.00561872	0.00664293	57.7599	3.41906e-08
707.509	87.5162	173.06	193.93	-63.1744	40.9965	-0.0329067	0.0018896	1.29984	1.03513	1	11	0.13126	0.000676842	7.21441e-06	0.0000000E+000	-100.086	0.00232701	0.00460158	0.0051565	63.1744	5.27628e-07
501.444	96.6073	235.035	254.115	-67.6557	43.2682	-0.0329089	0.00186135	1.35041	1.15523	1	11	0.130921	0.000515206	8.70424e-06	0.0000000E+000	-100.054	0.00149606	0.00363976	0.00393523	67.6557	1.04922e-07
354.66	108.194	320.591	338.356	-71.3514	45.8009	-0.0329218	0.000151651	1.39977	1.25665	1	12	0.132859	0.00039266	9.64687e-06	0.0000000E+000	-100.086	0.000945052	0.0028003	0.00295547	71.3514	-7.45811e-08
251.044	123.045	437.984	454.94	-74.3081	48.0699	-0.0329147	0.000178747	1.44748	1.34159	1	12	0.131751	0.000289601	9.48105e-06	0.0000000E+000	-100.07	0.000594505	0.00211617	0.00219809	74.3081	-1.67754e-07
177.781	142.151	599.706	616.323	-76.665	50.3622	-0.0329117	0.000166062	1.49278	1.41337	1	12	0.131157	0.000212806	9.90949e-06	0.0000000E+000	-100.062	0.000374226	0.00157878	0.00162253	76.665	2.55234e-07
125.846	167.408	823.19	840.04	-78.5048	52.6374	-0.0329144	0.000161119	1.53632	1.47531	1	12	0.130847	0.000155763	9.91119e-06	0.0000000E+000	-100.062	0.000237233	0.00116654	0.00119042	78.5048	-7.00016e-08
89.116	200.582	1131.75	1149.39	-79.9497	54.9097	-0.0329162	0.000159719	1.57802	1.52996	1	12	0.130678	0.000113693	1.00806e-05	0.0000000E+000	-100.062	0.00015183	0.000856676	0.000870026	79.9497	1.38379e-07
63.0823	245.939	1559.21	1578.49	-81.0364	57.2059	-0.0329171	0.000179412	1.61811	1.57883	1	12	0.130589	8.27305e-05	1.0146e-05	0.0000000E+000	-100.062	9.8706e-05	0.00062578	0.000633517	81.0364	7.10074e-08
44.6712	307.687	2149.9	2171.81	-81.8553	59.4712	-0.0329167	0.000188512	1.65719	1.62393	1	12	0.130542	6.01077e-05	1.02965e-05	0.0000000E+000	-100.086	6.52327e-05	0.000455801	0.000460446	81.8553	6.17151e-08
31.6296	393.351	2969.99	2995.93	-82.4556	61.9564	-0.0329115	1.90813e-05	1.69423	1.66502	1	13	0.130743	4.36404e-05	1.03144e-05	0.0000000E+000	-100.078	4.38246e-05	0.000330897	0.000333786	82.4556	-2.83734e-08
22.3854	515.876	4103.6	4135.9	-82.8348	64.2044	-0.0329146	6.36367e-06	1.73257	1.70561	1	13	0.130624	3.15829e-05	1.03183e-05	0.0000000E+000	-100.086	3.01582e-05	0.000239897	0.000241785	82.8348	9.78745e-08
15.8576	692.033	5667.55	5709.65	-83.0384	66.532	-0.0328969	1.27342e-05	1.77087	1.74486	1	13	0.130558	2.28663e-05	1.02448e-05	0.0000000E+000	-100.054	2.1228e-05	0.000173851	0.000175142	83.0384	-1.00494e-07
11.2249	952.657	7828.06	7885.82	-83.0614	68.9089	-0.0328943	1.03737e-05	1.81128	1.78484	1	13	0.130527	1.65521e-05	1.03248e-05	0.0000000E+000	-100.094	1.53194e-05	0.000125881	0.00012681	83.0614	-2.61404e-08
7.93953	1343.13	10811.5	10894.6	-82.9183	71.4517	-0.0329024	1.61412e-05	1.85413	1.82595	1	13	0.130515	1.19798e-05	1.02639e-05	0.0000000E+000	-100.086	1.13161e-05	9.10885e-05	9.17887e-05	82.9183	-1.03644e-07
5.6205	1941.39	14907.7	15033.6	-82.5803	73.3167	-0.0329086	2.59957e-05	1.89948	1.8678	1	13	0.130505	8.68092e-06	1.03879e-05	0.0000000E+000	-100.086	8.58989e-06	6.59607e-05	6.65176e-05	82.5803	6.09089e-08
3.97785	2779.25	20570	20756.9	-82.3053	75.8522	-0.032902	2.5826e-05	1.94508	1.91021	1	13	0.130504	6.28725e-06	1.02953e-05	0.0000000E+000	-100.062	6.45063e-06	4.77429e-05	4.81767e-05	82.3053	-3.12075e-08
2.81836	4145.63	28058.1	28362.7	-81.5953	79.7546	-0.0328976	-9.2817e-06	2.01264	1.96964	1	14	0.130523	4.60191e-06	1.03268e-05	0.0000000E+000	-100.054	5.15342e-06	3.48789e-05	3.52576e-05	81.5953	-6.3922e-08
1.99706	5927.7	38374.9	38830.1	-81.219	84.6167	-0.0328976	5.71689e-06	2.07674	2.02834	1	14	0.130509	3.36104e-06	1.03252e-05	0.0000000E+000	-100.086	3.93142e-06	2.54514e-05	2.57532e-05	81.219	-1.04549e-07
1.41224	8873.41	52384.2	53130.4	-80.3859	91.4232	-0.0328966	7.20587e-06	2.15135	2.09135	1	14	0.130504	2.45629e-06	1.04256e-05	0.0000000E+000	-100.078	3.14343e-06	1.85573e-05	1.88216e-05	80.3859	8.47489e-08
1.00006	12782.5	71073	72213.4	-79.8043	100.969	-0.0328909	3.3399e-07	2.23917	2.16901	1	14	0.1305	1.80715e-06	1.04547e-05	0.0000000E+000	-100.062	2.45122e-06	1.36292e-05	1.38479e-05	79.8043	8.15371e-08