Folder: ImpedanceFitter/data (part 5)

File: DE_40_9_60.mpt
EC-Lab ASCII FILE
Nb header lines : 75

Potentio Electrochemical Impedance Spectroscopy

Run on channel : 1 (SN 20909)
User :
CE vs. WE compliance from -10 V to 10 V
Electrode connection : standard
Ewe ctrl range : min = -10.00 V, max = 10.00 V
Safety Limits :
	Do not start on E overload
Acquisition started on : 01/24/2020 09:54:50
Technique started on : 01/24/2020 09:54:51
Saved on :
	File : DE_40_9_60.mpr
	Directory : P:\Chemistry\Data\VMP3\Kyler\DOE\DE_40\2ND 60C\
	Host : 10.0.4.99
Device : VMP3 (SN 0183)
Address : USB
EC-Lab for windows v11.33 (software)
Internet server v11.32 (firmware)
Command interpretor v11.33 (firmware)
Electrode material :
Initial state :
Electrolyte :
Comments :
Electrode surface area : 0.001 cm²
Characteristic mass : 0.001 g
Equivalent Weight : 0.000 g/eq.
Density : 0.000 g/cm3
Record Analogic IN 1
Cycle Definition : Charge/Discharge alternance
External device configuration :
   device type : Thermostat
   device name : Other
   Analog OUT :
      mode : E/V
      unit : T/°C
      max : 400.000 at 5.000 V
      min : -100.000 at 0.000 V
      current : 0.000
   Analog IN 1 :
      unit : T/°C
      max : 400.000 at 5.000 V
      min : -100.000 at 0.000 V
Mode                Single sine
E (V)               0.0000
vs.                 Eoc
tE (h:m:s)          0:00:0.0000
record              0
dI                  1.000
unit dI             mA
dt (s)              0.000
fi                  1.000
unit fi             MHz
ff                  1.000
unit ff             Hz
Nd                  20
Points              per decade
spacing             Logarithmic
Va (mV)             128.0
pw                  0.50
Na                  3
corr                0
E range min (V)     -10.000
E range max (V)     10.000
I Range             Auto
Bandwidth           5
nc cycles           0
goto Ns'            0
nr cycles           0
inc. cycle          1

freq/Hz	Re(Z)/Ohm	-Im(Z)/Ohm	|Z|/Ohm	Phase(Z)/deg	time/s	<Ewe>/V	<I>/mA	Cs/µF	Cp/µF	cycle number	I Range	|Ewe|/V	|I|/A	(Q-Qo)/mA.h	Analog OUT/V	Analog IN 1/V	Re(Y)/Ohm-1	Im(Y)/Ohm-1	|Y|/Ohm-1	Phase(Y)/deg	dq/mA.h
1.00002e+06	61.5018	71.066	93.9832	-49.1265	1.95249	0.0363324	0.00308159	0.0022395	0.00128048	1	11	0.00222724	2.36982e-05	8.06476e-07	0.0000000E+000	-100.07	0.00696285	0.00804565	0.0106402	49.1265	8.06476e-07
794333	77.9244	66.219	102.26	-40.3574	3.14449	0.0372927	0.00310903	0.00302577	0.00126878	1	11	0.00542447	5.30457e-05	1.89176e-06	0.0000000E+000	-100.046	0.00745177	0.0063324	0.00977897	40.3574	6.06196e-07
630957	92.8518	62.4599	111.905	-33.9281	4.33549	0.0381068	0.00310511	0.00403849	0.00125813	1	11	0.0112832	0.000100829	2.89631e-06	0.0000000E+000	-100.102	0.00741468	0.00498773	0.00893616	33.9281	5.34315e-07
501206	106.125	58.3672	121.116	-28.8102	5.52849	0.0387409	0.00317958	0.00544045	0.00126348	1	11	0.0201722	0.000166552	3.51667e-06	0.0000000E+000	-100.086	0.00723454	0.0039789	0.00825652	28.8102	2.77271e-07
398103	117.376	52.9914	128.784	-24.2975	6.71949	0.0391508	0.00317846	0.0075443	0.00127734	1	11	0.0321234	0.000249437	4.64471e-06	0.0000000E+000	-100.054	0.00707713	0.00319508	0.00776494	24.2975	8.37692e-07
316230	126.258	46.5796	134.577	-20.2502	7.9115	0.039322	0.0030984	0.0108049	0.00129442	1	11	0.047385	0.000352105	6.01349e-06	0.0000000E+000	-100.062	0.00697142	0.00257192	0.00743071	20.2502	1.98369e-07
251188	132.753	39.9626	138.637	-16.7534	9.10249	0.0394139	0.00321486	0.0158551	0.0013174	1	11	0.066454	0.000479337	6.9309e-06	0.0000000E+000	-100.062	0.00690691	0.00207919	0.00721307	16.7534	6.61292e-07
199544	137.158	33.8585	141.275	-13.8667	10.2955	0.0394759	0.00315981	0.0235567	0.00135306	1	11	0.0895382	0.000633785	8.51747e-06	0.0000000E+000	-100.094	0.00687208	0.00169642	0.00707837	13.8667	2.76328e-07
158486	140.124	28.7659	143.046	-11.601	11.3515	0.0395479	0.00316784	0.0349101	0.00141174	1	11	0.116548	0.000814756	9.97823e-06	0.0000000E+000	-100.078	0.00684794	0.0014058	0.00699075	11.601	-9.57099e-08
125909	142.18	24.7163	144.312	-9.86164	12.4085	0.0396154	0.00315123	0.0511422	0.00150017	1	11	0.129467	0.000897131	1.07605e-05	0.0000000E+000	-100.07	0.00682704	0.0011868	0.00692943	9.86164	4.98873e-07
100004	143.603	21.6184	145.221	-8.56117	13.6005	0.0397062	0.00310047	0.0736174	0.00163142	1	11	0.129617	0.000892545	1.21816e-05	0.0000000E+000	-100.078	0.00680931	0.00102509	0.00688604	8.56117	7.20109e-07
79433.3	144.588	19.3972	145.883	-7.64091	14.7915	0.0397853	0.00323409	0.103295	0.00182619	1	11	0.129604	0.000888407	1.52657e-05	0.0000000E+000	-100.086	0.00679394	0.000911443	0.0068548	7.64091	8.71292e-07
63093.8	145.257	18.0386	146.373	-7.07899	15.9825	0.0398195	0.00316821	0.13984	0.00212381	1	11	0.129375	0.000883876	1.48661e-05	0.0000000E+000	-100.07	0.0067798	0.000841944	0.00683188	7.07899	1.80281e-08
50122.5	145.766	17.4928	146.812	-6.8431	17.0395	0.0398377	0.00315664	0.181522	0.00257705	1	11	0.139862	0.000952658	1.75959e-05	0.0000000E+000	-100.118	0.0067629	0.000811588	0.00681143	6.8431	7.60338e-07
39814.1	146.146	17.7922	147.225	-6.94116	18.0945	0.0398666	0.00323055	0.224675	0.00328132	1	11	0.139226	0.000945668	1.71732e-05	0.0000000E+000	-100.062	0.00674254	0.000820853	0.00679232	6.94116	3.59232e-07
31621.1	146.456	18.9403	147.676	-7.36882	19.1495	0.0398707	0.00315496	0.26574	0.00437131	1	11	0.137082	0.000928267	2.02018e-05	0.0000000E+000	-100.094	0.00671568	0.000868498	0.0067716	7.36882	1.08446e-06
25116.9	146.789	20.9999	148.284	-8.14156	20.2065	0.0399005	0.00317643	0.301743	0.00605177	1	11	0.134931	0.000909949	2.11988e-05	0.0000000E+000	-100.038	0.00667585	0.000955055	0.00674382	8.14156	1.30526e-06
19948.8	147.154	24.0709	149.11	-9.28996	21.2635	0.0399108	0.00321786	0.331444	0.00863741	1	11	0.12961	0.000869222	2.26347e-05	0.0000000E+000	-100.078	0.0066185	0.00108263	0.00670646	9.28996	3.85136e-07
15847.7	147.634	28.2946	150.321	-10.8494	22.1835	0.0399119	0.00324753	0.354936	0.0125753	1	11	0.13555	0.000901737	2.23192e-05	0.0000000E+000	-100.078	0.00653353	0.00125218	0.00665244	10.8494	-1.69315e-07
12590.9	148.241	33.8703	152.061	-12.8701	23.1025	0.0399071	0.00316336	0.373202	0.0185159	1	11	0.139682	0.00091859	2.37728e-05	0.0000000E+000	-100.086	0.00641109	0.00146481	0.0065763	12.8701	9.88695e-07
10002.2	149.051	41.0478	154.6	-15.3973	24.1585	0.0399188	0.00320815	0.387644	0.0273273	1	11	0.130395	0.000843439	2.67796e-05	0.0000000E+000	-100.054	0.00623616	0.00171741	0.00646832	15.3973	6.73895e-07
7944	150.166	50.1484	158.318	-18.4669	25.167	0.0399383	0.00328019	0.399507	0.0400845	1	11	0.13192	0.000833258	2.78191e-05	0.0000000E+000	-100.094	0.00599114	0.00200076	0.0063164	18.4669	6.66166e-07
6307.73	151.658	61.5663	163.678	-22.095	26.3785	0.0399548	0.00318296	0.40983	0.0579842	1	11	0.132757	0.000811089	2.88973e-05	0.0000000E+000	-100.062	0.00566089	0.00229807	0.00610956	22.095	-6.04055e-08
5011.6	153.694	75.7361	171.341	-26.2328	27.8397	0.0399605	0.00321674	0.419315	0.0819261	1	11	0.133118	0.000776917	3.01855e-05	0.0000000E+000	-100.086	0.0052352	0.00257976	0.00583631	26.2328	6.03112e-07
3981.27	156.424	93.2581	182.114	-30.8029	29.3597	0.0399548	0.00312323	0.428659	0.112408	1	11	0.133146	0.000731116	3.05404e-05	0.0000000E+000	-100.062	0.00471647	0.0028119	0.00549107	30.8029	1.00489e-07
[...]
794.238	221.49	386.939	445.847	-60.2126	40.249	0.0399472	0.00126183	0.517877	0.390068	1	12	0.134742	0.000302215	3.77605e-05	0.0000000E+000	-100.054	0.00111425	0.00194657	0.00224292	60.2126	3.74317e-07
631.01	242.657	470.969	529.806	-62.7412	41.7695	0.0399533	0.00122821	0.53554	0.423197	1	12	0.133604	0.000252175	3.79785e-05	0.0000000E+000	-100.054	0.000864489	0.00167787	0.00188748	62.7412	1.16423e-07
501.444	268.915	572.39	632.413	-64.8353	43.2832	0.0399568	0.00123101	0.554505	0.454243	1	12	0.132806	0.000209999	3.84558e-05	0.0000000E+000	-100.062	0.000672379	0.00143117	0.00158125	64.8353	8.8982e-08
398.089	301.384	695.517	758.008	-66.5717	44.8027	0.0399569	0.00119253	0.57482	0.483949	1	12	0.132263	0.000174488	3.92099e-05	0.0000000E+000	-100.054	0.000524533	0.00121049	0.00131925	66.5717	3.13081e-07
316.316	341.128	843.68	910.036	-67.9849	46.3189	0.0399583	0.00121214	0.596377	0.512578	1	12	0.13189	0.000144928	3.97135e-05	0.0000000E+000	-100.062	0.000411909	0.00101873	0.00109886	67.9849	3.82045e-07
251.044	390.059	1023.49	1095.3	-69.1378	47.8309	0.0399556	0.00119327	0.619421	0.540864	1	12	0.131642	0.000120188	4.0236e-05	0.0000000E+000	-100.054	0.000325137	0.000853137	0.000912993	69.1378	3.43224e-07
199.553	449.594	1239.3	1318.34	-70.0603	49.3552	0.0399517	0.00120721	0.643552	0.568706	1	12	0.131478	9.97305e-05	4.09351e-05	0.0000000E+000	-100.086	0.000258683	0.000713059	0.000758532	70.0603	3.60712e-07
158.428	522.689	1500.64	1589.06	-70.7962	50.8898	0.0399582	0.00119204	0.669438	0.597009	1	12	0.131364	8.26678e-05	4.14485e-05	0.0000000E+000	-100.086	0.000206995	0.000594284	0.000629301	70.7962	2.45068e-07
125.846	610.756	1815.43	1915.42	-71.4058	52.3974	0.0399519	0.00120415	0.696629	0.6258	1	12	0.131291	6.85446e-05	4.19599e-05	0.0000000E+000	-100.054	0.000166472	0.000494827	0.000522079	71.4058	3.13993e-07
100.032	717.667	2194.6	2308.97	-71.8915	53.9027	0.039952	0.00118845	0.724979	0.654941	1	12	0.131246	5.68419e-05	4.25351e-05	0.0000000E+000	-100.054	0.000134613	0.000411643	0.000433094	71.8915	2.54022e-07
79.4155	847.208	2655.49	2787.36	-72.3052	55.6862	0.0399582	0.00103413	0.754692	0.684971	1	13	0.131776	4.72762e-05	4.31107e-05	0.0000000E+000	-100.054	0.000109044	0.000341789	0.000358762	72.3052	3.6238e-07
63.0823	1003.73	3210.48	3363.73	-72.6385	57.2178	0.0399629	0.00104281	0.785856	0.715881	1	13	0.131563	3.91122e-05	4.35236e-05	0.0000000E+000	-100.062	8.8711e-05	0.000283745	0.000297289	72.6385	2.22548e-07
50.1444	1189.37	3877.97	4056.26	-72.9493	58.7182	0.0399585	0.00103839	0.818452	0.748084	1	13	0.131419	3.23989e-05	4.39163e-05	0.0000000E+000	-100.07	7.22878e-05	0.000235696	0.000246532	72.9493	2.03384e-07
39.8089	1420.95	4691.96	4902.41	-73.1511	60.2447	0.0399543	0.00103699	0.85209	0.780504	1	13	0.13133	2.67889e-05	4.43831e-05	0.0000000E+000	-100.038	5.91236e-05	0.000195225	0.000203981	73.1511	2.53619e-07
31.6296	1696.57	5671.52	5919.84	-73.3461	61.7194	0.0399581	0.00104177	0.887212	0.814342	1	13	0.131268	2.21742e-05	4.47412e-05	0.0000000E+000	-100.046	4.84117e-05	0.000161838	0.000168923	73.3461	1.85449e-07
25.1044	2032.17	6861.72	7156.31	-73.5028	63.2799	0.0399588	0.00104867	0.923926	0.849422	1	13	0.131228	1.83374e-05	4.52313e-05	0.0000000E+000	-100.062	3.96808e-05	0.000133984	0.000139737	73.5028	2.32101e-07
22.3854	2225.06	7543.06	7864.39	-73.5649	63.9664	0.0399581	0.00104192	0.942558	0.867107	1	13	0.131215	1.66848e-05	4.54076e-05	0.0000000E+000	-100.102	3.5976e-05	0.00012196	0.000127155	73.5649	1.76285e-07

File: DE_40_10_60.mpt
EC-Lab ASCII FILE
Nb header lines : 75

Potentio Electrochemical Impedance Spectroscopy

Run on channel : 2 (SN 20919)
User :
CE vs. WE compliance from -10 V to 10 V
Electrode connection : standard
Ewe ctrl range : min = -10.00 V, max = 10.00 V
Safety Limits :
	Do not start on E overload
Acquisition started on : 01/24/2020 09:53:32
Technique started on : 01/24/2020 09:53:33
Saved on :
	File : DE_40_10_60.mpr
	Directory : P:\Chemistry\Data\VMP3\Kyler\DOE\DE_40\2ND 60C\
	Host : 10.0.4.99
Device : VMP3 (SN 0183)
Address : USB
EC-Lab for windows v11.33 (software)
Internet server v11.32 (firmware)
Command interpretor v11.33 (firmware)
Electrode material :
Initial state :
Electrolyte :
Comments :
Electrode surface area : 0.001 cm²
Characteristic mass : 0.001 g
Equivalent Weight : 0.000 g/eq.
Density : 0.000 g/cm3
Record Analogic IN 1
Cycle Definition : Charge/Discharge alternance
External device configuration :
   device type : Thermostat
   device name : Other
   Analog OUT :
      mode : E/V
      unit : T/°C
      max : 400.000 at 5.000 V
      min : -100.000 at 0.000 V
      current : 0.000
   Analog IN 1 :
      unit : T/°C
      max : 400.000 at 5.000 V
      min : -100.000 at 0.000 V
Mode                Single sine
E (V)               0.0000
vs.                 Eoc
tE (h:m:s)          0:00:0.0000
record              0
dI                  1.000
unit dI             mA
dt (s)              0.000
fi                  1.000
unit fi             MHz
ff                  1.000
unit ff             Hz
Nd                  20
Points              per decade
spacing             Logarithmic
Va (mV)             128.0
pw                  0.50
Na                  3
corr                0
E range min (V)     -10.000
E range max (V)     10.000
I Range             Auto
Bandwidth           5
nc cycles           0
goto Ns'            0
nr cycles           0
inc. cycle          1

freq/Hz	Re(Z)/Ohm	-Im(Z)/Ohm	|Z|/Ohm	Phase(Z)/deg	time/s	<Ewe>/V	<I>/mA	Cs/µF	Cp/µF	cycle number	I Range	|Ewe|/V	|I|/A	(Q-Qo)/mA.h	Analog OUT/V	Analog IN 1/V	Re(Y)/Ohm-1	Im(Y)/Ohm-1	|Y|/Ohm-1	Phase(Y)/deg	dq/mA.h
1.00002e+06	72.0329	35.9192	80.4917	-26.5031	1.74648	0.0572574	0.00173626	0.00443084	0.000882339	1	11	0.00129389	1.60748e-05	3.11076e-07	0.0000000E+000	-100.094	0.011118	0.005544	0.0124236	26.5031	3.11076e-07
707950	82.7708	30.8463	88.3318	-20.4389	3.53248	0.0583203	0.00170671	0.00728812	0.000888763	1	11	0.00561133	6.35256e-05	9.02974e-07	0.0000000E+000	-100.11	0.0106082	0.00395338	0.011321	20.4389	1.75104e-07
501206	93.1204	27.056	96.9713	-16.2011	5.32147	0.0589462	0.00186803	0.0117366	0.000913651	1	11	0.015545	0.000160306	2.17467e-06	0.0000000E+000	-100.078	0.00990281	0.00287724	0.0103123	16.2011	3.33118e-07
354810	100.311	22.6644	102.84	-12.7316	7.10849	0.0591231	0.0018751	0.0197916	0.000961266	1	11	0.0319541	0.000310717	4.06094e-06	0.0000000E+000	-100.046	0.00948476	0.00214299	0.00972384	12.7316	5.15549e-07
251188	104.737	18.1787	106.303	-9.84646	8.89449	0.0590775	0.0017372	0.0348544	0.00101928	1	11	0.0558825	0.00052569	5.46815e-06	0.0000000E+000	-100.094	0.00926849	0.00160869	0.00940706	9.84646	1.00019e-06
177832	107.189	14.4474	108.159	-7.67631	10.6825	0.0590743	0.00156661	0.0619469	0.0011053	1	11	0.0882185	0.00081564	7.04693e-06	0.0000000E+000	-100.134	0.00916282	0.001235	0.00924568	7.67631	7.11625e-07
125909	108.512	11.8392	109.156	-6.22663	12.3345	0.0590962	0.00156345	0.106768	0.001256	1	11	0.128491	0.00117713	7.43932e-06	0.0000000E+000	-100.11	0.00910717	0.000993638	0.00916121	6.22663	-3.93406e-07
89129.3	109.223	10.3481	109.712	-5.4122	14.1215	0.0592295	0.00173703	0.172559	0.00153514	1	11	0.129634	0.00118158	4.97811e-06	0.0000000E+000	-100.062	0.0090741	0.000859706	0.00911474	5.4122	-1.17093e-06
63093.8	109.615	9.92164	110.063	-5.17193	15.9095	0.0592995	0.00178219	0.254244	0.002066	1	11	0.129405	0.00117573	8.30945e-06	0.0000000E+000	-100.11	0.00904868	0.000819025	0.00908567	5.17193	-5.06645e-07
44666.7	109.868	10.5544	110.374	-5.48721	17.5605	0.0593356	0.00184316	0.337601	0.00308698	1	11	0.140102	0.00126933	1.15642e-05	0.0000000E+000	-100.078	0.00901857	0.000866357	0.00906008	5.48721	4.99797e-07
31621.1	110.094	12.3365	110.783	-6.39355	19.2125	0.0593737	0.00178944	0.407993	0.00505927	1	11	0.130017	0.00117362	1.06639e-05	0.0000000E+000	-100.062	0.00897053	0.00100518	0.00902667	6.39355	-4.80707e-07
22389	110.385	15.4496	111.461	-7.96739	20.7275	0.0593903	0.00177216	0.460117	0.00884004	1	11	0.135449	0.00121522	1.04842e-05	0.0000000E+000	-100.11	0.00888513	0.00124357	0.00897173	7.96739	-2.24966e-07
15847.7	110.812	20.2363	112.644	-10.3493	22.2435	0.0593995	0.00182643	0.496275	0.0160165	1	11	0.133248	0.00118291	1.18689e-05	0.0000000E+000	-100.07	0.00873307	0.00159483	0.0088775	10.3493	-2.21394e-07
11217.7	111.499	27.1885	114.766	-13.7039	23.6225	0.0593996	0.00177829	0.521831	0.0292871	1	11	0.140707	0.00122604	1.28064e-05	0.0000000E+000	-100.126	0.00846535	0.00206424	0.0087134	13.7039	-3.842e-07
7944	112.57	37.0077	118.497	-18.1984	25.228	0.0594224	0.00192455	0.541364	0.0528026	1	11	0.131489	0.00110964	1.53876e-05	0.0000000E+000	-100.118	0.0080169	0.00263557	0.00843901	18.1984	2.58669e-07
5621.06	114.253	50.7083	125	-23.9329	27.1403	0.0594508	0.00186266	0.558371	0.0918884	1	11	0.132966	0.00106373	1.6823e-05	0.0000000E+000	-100.038	0.00731216	0.00324533	0.00799999	23.9329	9.71296e-07
3981.27	116.865	69.5052	135.972	-30.7419	29.4207	0.0594435	0.00179334	0.575149	0.150285	1	11	0.133192	0.000979552	1.80437e-05	0.0000000E+000	-100.046	0.00632098	0.00375938	0.00735444	30.7419	-3.20105e-07
2817.3	120.967	95.2315	153.955	-38.2116	31.7009	0.0594525	0.00186192	0.593208	0.226977	1	11	0.132772	0.000862406	1.77139e-05	0.0000000E+000	-100.078	0.00510365	0.00401785	0.00649541	38.2116	-3.24044e-07
1995.64	127.178	129.97	181.842	-45.6221	33.9807	0.0594505	0.0018463	0.613612	0.313468	1	11	0.13213	0.000726621	1.88357e-05	0.0000000E+000	-100.062	0.00384613	0.00393056	0.00549927	45.6221	-2.16996e-07
1411.84	136.383	176.922	223.387	-52.3727	36.2622	0.0594599	0.00186042	0.637167	0.39967	1	11	0.131528	0.000588791	2.11535e-05	0.0000000E+000	-100.07	0.00273303	0.00354541	0.00447654	52.3727	7.37859e-07
1000.32	149.514	239.619	282.438	-58.0372	38.5397	0.0594656	0.00201486	0.663989	0.477919	1	11	0.131084	0.000464117	2.29411e-05	0.0000000E+000	-100.062	0.00187428	0.00300381	0.0035406	58.0372	8.10949e-07
707.509	167.891	324.131	365.032	-62.6171	41.0715	0.0594527	0.000192586	0.694012	0.5472	1	12	0.134502	0.000368467	2.32008e-05	0.0000000E+000	-100.078	0.00125999	0.00243253	0.00273948	62.6171	-2.46226e-07
501.444	193.247	436.567	477.426	-66.1234	43.3432	0.0594547	0.000194561	0.72702	0.607907	1	12	0.13267	0.000277886	2.28942e-05	0.0000000E+000	-100.134	0.000847814	0.00191531	0.00209457	66.1234	5.53538e-08
354.66	228.272	588.087	630.836	-68.7858	45.6229	0.0594558	0.00015698	0.763075	0.663158	1	12	0.131632	0.000208663	2.28986e-05	0.0000000E+000	-100.086	0.000573613	0.00147778	0.0015852	68.7858	-8.70563e-08
251.044	276.092	790.907	837.712	-70.7568	47.8919	0.0594558	0.00017311	0.801575	0.714506	1	12	0.131064	0.000156454	2.30155e-05	0.0000000E+000	-100.062	0.000393428	0.00112703	0.00119373	70.7568	2.56793e-08
177.781	341.552	1061.93	1115.5	-72.1704	50.1842	0.0594589	0.000172064	0.843024	0.76399	1	12	0.130756	0.000117217	2.34101e-05	0.0000000E+000	-100.078	0.000274484	0.000853402	0.000896457	72.1704	1.34463e-07
125.846	431.808	1424.2	1488.22	-73.133	52.4594	0.0594608	0.000171206	0.887996	0.813238	1	12	0.130594	8.77516e-05	2.34755e-05	0.0000000E+000	-100.07	0.000194965	0.000643037	0.000671943	73.133	1.55676e-08
89.116	555.111	1907.31	1986.45	-73.7727	54.7317	0.059461	0.000160762	0.936361	0.863239	1	12	0.130501	6.56958e-05	2.36633e-05	0.0000000E+000	-100.07	0.000140678	0.000483355	0.000503411	73.7727	7.40524e-08
63.0823	722.009	2552.24	2652.4	-74.2042	57.2848	0.0594626	1.56005e-05	0.988531	0.915283	1	13	0.130933	4.93639e-05	2.37476e-05	0.0000000E+000	-100.094	0.000102627	0.00036278	0.000377017	74.2042	4.6052e-08
44.6712	946.065	3408.63	3537.49	-74.488	59.5492	0.05946	1.36501e-05	1.04523	0.970471	1	13	0.130687	3.69434e-05	2.38025e-05	0.0000000E+000	-100.054	7.56017e-05	0.00027239	0.000282687	74.488	1.45338e-08
31.6296	1246.03	4548.24	4715.83	-74.6792	61.7864	0.0594639	9.37099e-06	1.10633	1.02909	1	13	0.13055	2.76834e-05	2.38527e-05	0.0000000E+000	-99.9896	5.6029e-05	0.000204516	0.000212052	74.6792	2.88046e-08
22.3854	1646.03	6068.5	6287.78	-74.8241	64.0344	0.0594619	9.80139e-06	1.17159	1.0913	1	13	0.130483	2.07519e-05	2.38317e-05	0.0000000E+000	-100.094	4.16336e-05	0.000153493	0.000159039	74.8241	2.82269e-08
15.8576	2174.17	8089.13	8376.22	-74.9557	66.3619	0.0594662	1.3767e-05	1.24074	1.15715	1	13	0.130443	1.5573e-05	2.38532e-05	0.0000000E+000	-100.094	3.09883e-05	0.000115294	0.000119386	74.9557	4.17098e-08
11.2249	2876.76	10794.2	11171	-75.077	68.7389	0.0594629	9.82911e-06	1.31356	1.22645	1	13	0.130423	1.16752e-05	2.39011e-05	0.0000000E+000	-100.11	2.30527e-05	8.64985e-05	8.95177e-05	75.077	7.68221e-08
7.93953	3805.8	14412.2	14906.2	-75.2077	71.2827	0.0594734	1.48631e-05	1.3909	1.30023	1	13	0.130412	8.74886e-06	2.3836e-05	0.0000000E+000	-100.102	1.71282e-05	6.48627e-05	6.70861e-05	75.2077	-4.56994e-08
5.6205	5072.72	19284.8	19940.8	-75.2626	73.1477	0.0594747	1.64254e-05	1.46835	1.37333	1	13	0.130411	6.5399e-06	2.38278e-05	0.0000000E+000	-100.078	1.27572e-05	4.84987e-05	5.01485e-05	75.2626	1.53732e-08
3.97785	6703.87	25918.2	26771.2	-75.498	75.9842	0.0594795	-2.40896e-05	1.54371	1.44691	1	14	0.130439	4.87238e-06	2.3896e-05	0.0000000E+000	-100.062	9.35386e-06	3.61635e-05	3.73536e-05	75.498	-3.44212e-08
2.81836	8840.45	34464.6	35580.4	-75.6134	79.4827	0.0594798	-3.85593e-06	1.63851	1.53736	1	14	0.130416	3.6654e-06	2.39008e-05	0.0000000E+000	-100.054	6.98316e-06	2.7224e-05	2.81054e-05	75.6134	4.73563e-08
1.99706	11870.2	46099.1	47602.8	-75.5604	84.3447	0.0594827	-5.54813e-06	1.72877	1.62127	1	14	0.130413	2.7396e-06	2.38555e-05	0.0000000E+000	-100.062	5.23831e-06	2.03436e-05	2.10072e-05	75.5604	-3.16624e-08
1.41224	15904.5	61584.6	63605.2	-75.5195	91.1502	0.0594847	6.59257e-07	1.82995	1.71553	1	14	0.130407	2.05025e-06	2.37875e-05	0.0000000E+000	-100.07	3.9313e-06	1.52226e-05	1.5722e-05	75.5195	-1.2246e-07
1.00006	21484	82395.1	85149.9	-75.3859	100.696	0.0594867	2.00552e-06	1.93148	1.80853	1	14	0.130403	1.53145e-06	2.38822e-05	0.0000000E+000	-100.054	2.9631e-06	1.1364e-05	1.1744e-05	75.3859	7.52037e-08