Folder: ImpedanceFitter/data (part 9)

File: DE_49_2_30.mpt
EC-Lab ASCII FILE
Nb header lines : 75

Potentio Electrochemical Impedance Spectroscopy

Run on channel : 2 (SN 20919)
User :
CE vs. WE compliance from -10 V to 10 V
Electrode connection : standard
Ewe ctrl range : min = -10.00 V, max = 10.00 V
Safety Limits :
	Do not start on E overload
Acquisition started on : 01/22/2020 09:35:57
Technique started on : 01/22/2020 09:35:58
Saved on :
	File : DE_49_2_30.mpr
	Directory : P:\Chemistry\Data\VMP3\Kyler\DOE\DE_49\30C\
	Host : 10.0.4.99
Device : VMP3 (SN 0183)
Address : USB
EC-Lab for windows v11.33 (software)
Internet server v11.32 (firmware)
Command interpretor v11.33 (firmware)
Electrode material :
Initial state :
Electrolyte :
Comments :
Electrode surface area : 0.001 cm²
Characteristic mass : 0.001 g
Equivalent Weight : 0.000 g/eq.
Density : 0.000 g/cm3
Record Analogic IN 1
Cycle Definition : Charge/Discharge alternance
External device configuration :
   device type : Thermostat
   device name : Other
   Analog OUT :
      mode : E/V
      unit : T/°C
      max : 400.000 at 5.000 V
      min : -100.000 at 0.000 V
      current : 0.000
   Analog IN 1 :
      unit : T/°C
      max : 400.000 at 5.000 V
      min : -100.000 at 0.000 V
Mode                Single sine
E (V)               0.0000
vs.                 Eoc
tE (h:m:s)          0:00:0.0000
record              0
dI                  1.000
unit dI             mA
dt (s)              0.000
fi                  1.000
unit fi             MHz
ff                  1.000
unit ff             Hz
Nd                  20
Points              per decade
spacing             Logarithmic
Va (mV)             128.0
pw                  0.50
Na                  3
corr                0
E range min (V)     -10.000
E range max (V)     10.000
I Range             Auto
Bandwidth           5
nc cycles           0
goto Ns'            0
nr cycles           0
inc. cycle          1

freq/Hz	Re(Z)/Ohm	-Im(Z)/Ohm	|Z|/Ohm	Phase(Z)/deg	time/s	<Ewe>/V	<I>/mA	Cs/µF	Cp/µF	cycle number	I Range	|Ewe|/V	|I|/A	(Q-Qo)/mA.h	Analog OUT/V	Analog IN 1/V	Re(Y)/Ohm-1	Im(Y)/Ohm-1	|Y|/Ohm-1	Phase(Y)/deg	dq/mA.h
1.00002e+06	-1.30761	-2.38723	2.7219	118.712	1.80149	-0.00355042	-0.971648	-0.066668	-0.0512818	1	9	0.000160098	5.88184e-05	-0.000276889	0.0000000E+000	-100.118	-0.176496	-0.322219	0.367391	-118.712	-0.000276889
794333	-0.867988	-4.04626	4.13831	102.107	2.99249	-0.00278908	-0.716062	-0.0495181	-0.0473397	1	9	0.000476304	0.000115096	-0.000524974	0.0000000E+000	-100.078	-0.0506837	-0.23627	0.241645	-102.107	-0.000115364
630957	0.922073	-4.59762	4.68917	78.6595	4.18348	-0.00224056	-0.533402	-0.054864	-0.0527426	1	9	0.00109404	0.000233312	-0.000709488	0.0000000E+000	-100.086	0.0419347	-0.209094	0.213257	-78.6595	-8.51424e-05
501206	2.06244	-3.88807	4.40122	62.0562	5.37648	-0.00187837	-0.421485	-0.0816714	-0.0637371	1	9	0.00203573	0.000462538	-0.000851348	0.0000000E+000	-100.054	0.106472	-0.200719	0.22721	-62.0562	-6.62438e-05
398103	2.59651	-3.14546	4.0787	50.4611	6.5685	-0.00170542	-0.353708	-0.127098	-0.0755901	1	9	0.00339542	0.000832477	-0.000964718	0.0000000E+000	-100.086	0.15608	-0.189078	0.245176	-50.4611	-5.43861e-05
316230	2.84599	-2.48831	3.78038	41.1639	7.75848	-0.00169768	-0.353783	-0.202262	-0.0876293	1	9	0.0053759	0.00142205	-0.00107799	0.0000000E+000	-100.11	0.199141	-0.174113	0.264523	-41.1639	-5.69662e-05
251188	2.97288	-1.96131	3.56157	33.4141	8.94948	-0.00171912	-0.365424	-0.323054	-0.0979682	1	9	0.00843917	0.00236951	-0.00118783	0.0000000E+000	-100.15	0.234366	-0.154619	0.280775	-33.4141	-5.40918e-05
199544	3.03189	-1.55944	3.40943	27.2189	10.1415	-0.00173077	-0.362495	-0.511462	-0.107001	1	9	0.0137075	0.00402048	-0.00129606	0.0000000E+000	-100.086	0.260825	-0.134155	0.293304	-27.2189	-5.20724e-05
158486	3.06246	-1.25251	3.30869	22.244	11.3325	-0.00171597	-0.360163	-0.801767	-0.114894	1	9	0.0234979	0.00710188	-0.00140181	0.0000000E+000	-100.126	0.279742	-0.114411	0.302235	-22.244	-4.65845e-05
125909	3.06884	-1.01221	3.23146	18.2543	12.5255	-0.00170316	-0.362849	-1.2488	-0.122527	1	9	0.0432343	0.0133792	-0.00152547	0.0000000E+000	-100.118	0.293884	-0.0969328	0.309457	-18.2543	-7.35204e-05
100004	3.07073	-0.822308	3.17893	14.9914	13.8525	-0.00153631	-0.287497	-1.93539	-0.129502	1	9	0.140574	0.0442205	-0.00165531	0.0000000E+000	-100.11	0.303865	-0.0813718	0.314572	-14.9914	-8.60569e-05
79433.3	3.05796	-0.658771	3.12811	12.1573	15.1805	-0.00140414	-0.251771	-3.04147	-0.134892	1	9	0.120834	0.0386284	-0.00188571	0.0000000E+000	-100.142	0.312512	-0.067324	0.319682	-12.1573	-6.21182e-05
63093.8	3.04923	-0.527016	3.09444	9.80589	16.3725	-0.00138245	-0.221493	-4.78641	-0.138833	1	9	0.128854	0.0416407	-0.00189592	0.0000000E+000	-100.086	0.318439	-0.0550378	0.323161	-9.80589	2.4024e-05
50122.5	3.04308	-0.420951	3.07206	7.87577	17.5635	-0.001328	-0.205038	-7.5432	-0.141631	1	9	0.130432	0.0424576	-0.00186975	0.0000000E+000	-100.07	0.322444	-0.0446038	0.325514	-7.87577	-2.76329e-05
39814.1	3.03877	-0.335882	3.05728	6.30743	18.6185	-0.00148736	-0.228041	-11.9014	-0.143649	1	9	0.138625	0.0453428	-0.00183785	0.0000000E+000	-100.118	0.325109	-0.035935	0.327089	-6.30743	3.72549e-06
31621.1	3.03431	-0.267451	3.04607	5.03716	19.6735	-0.00134013	-0.210691	-18.8191	-0.14508	1	9	0.136042	0.0446616	-0.00201979	0.0000000E+000	-100.102	0.327024	-0.0288246	0.328292	-5.03716	-2.94445e-05
25116.9	3.03154	-0.212901	3.039	4.01722	20.7295	-0.00133147	-0.212053	-29.7629	-0.146073	1	9	0.130663	0.0429953	-0.00211084	0.0000000E+000	-100.086	0.328247	-0.0230524	0.329055	-4.01722	-7.80589e-05
19948.8	3.03036	-0.168956	3.03506	3.19119	21.6485	-0.00131817	-0.204721	-47.2206	-0.146333	1	9	0.13335	0.0439365	-0.00211448	0.0000000E+000	-100.118	0.328972	-0.0183416	0.329483	-3.19119	6.05482e-06
15847.7	3.02952	-0.134289	3.0325	2.53808	22.5675	-0.0013208	-0.206139	-74.7848	-0.146654	1	9	0.134618	0.0443918	-0.00223271	0.0000000E+000	-100.11	0.329438	-0.0146029	0.329761	-2.53808	-6.16086e-05
12590.9	3.02881	-0.106368	3.03068	2.01132	23.4855	-0.00130244	-0.199945	-118.837	-0.146383	1	9	0.13514	0.0445906	-0.002299	0.0000000E+000	-100.07	0.329756	-0.0115806	0.329959	-2.01132	-6.73709e-05
10002.2	3.02868	-0.0850392	3.02988	1.60832	24.4035	-0.0012945	-0.19349	-187.113	-0.147398	1	9	0.13537	0.0446784	-0.00243383	0.0000000E+000	-100.086	0.329916	-0.00926337	0.330046	-1.60832	-6.65556e-05
7944	3.02835	-0.0670754	3.02909	1.26885	25.412	-0.00126269	-0.181569	-298.688	-0.14646	1	9	0.135405	0.0447016	-0.00249968	0.0000000E+000	-100.102	0.330051	-0.00731035	0.330132	-1.26885	-5.99317e-05
6307.73	3.02783	-0.0529738	3.02829	1.00232	26.6235	-0.00124431	-0.191307	-476.305	-0.145751	1	9	0.135412	0.0447157	-0.00255112	0.0000000E+000	-100.07	0.330169	-0.00577651	0.330219	-1.00232	-4.59147e-05
5011.6	3.02816	-0.0421804	3.02845	0.798044	28.0847	-0.00124179	-0.189236	-752.892	-0.146054	1	9	0.135409	0.0447123	-0.00269015	0.0000000E+000	-100.062	0.33017	-0.00459906	0.330202	-0.798044	-6.85733e-05
3981.27	3.0282	-0.0334993	3.02838	0.633806	29.6037	-0.00123262	-0.181886	-1193.33	-0.14602	1	9	0.135402	0.0447109	-0.00274787	0.0000000E+000	-100.094	0.330189	-0.0036527	0.330209	-0.633806	-5.90807e-05
3161.01	3.02792	-0.026298	3.02803	0.497611	31.1227	-0.00123937	-0.19015	-1914.57	-0.14441	1	9	0.135394	0.0447135	-0.00283534	0.0000000E+000	-100.086	0.330235	-0.00286815	0.330248	-0.497611	-4.06061e-05
2510.8	3.02841	-0.0212152	3.02849	0.401372	32.6427	-0.00124015	-0.185598	-2987.86	-0.146623	1	9	0.135393	0.0447065	-0.00286188	0.0000000E+000	-100.078	0.33019	-0.0023131	0.330198	-0.401372	-2.55996e-05
2237.85	3.02795	-0.0188251	3.02801	0.35621	33.403	-0.00123846	-0.184498	-3777.91	-0.14602	1	9	0.135389	0.0447123	-0.0029411	0.0000000E+000	-100.03	0.330244	-0.00205317	0.33025	-0.35621	-7.92182e-05

File: DE_49_3_30.mpt
EC-Lab ASCII FILE
Nb header lines : 75

Potentio Electrochemical Impedance Spectroscopy

Run on channel : 3 (SN 20921)
User :
CE vs. WE compliance from -10 V to 10 V
Electrode connection : standard
Ewe ctrl range : min = -10.00 V, max = 10.00 V
Safety Limits :
	Do not start on E overload
Acquisition started on : 01/22/2020 09:35:42
Technique started on : 01/22/2020 09:35:44
Saved on :
	File : DE_49_3_30.mpr
	Directory : P:\Chemistry\Data\VMP3\Kyler\DOE\DE_49\30C\
	Host : 10.0.4.99
Device : VMP3 (SN 0183)
Address : USB
EC-Lab for windows v11.33 (software)
Internet server v11.32 (firmware)
Command interpretor v11.33 (firmware)
Electrode material :
Initial state :
Electrolyte :
Comments :
Electrode surface area : 0.001 cm²
Characteristic mass : 0.001 g
Equivalent Weight : 0.000 g/eq.
Density : 0.000 g/cm3
Record Analogic IN 1
Cycle Definition : Charge/Discharge alternance
External device configuration :
   device type : Thermostat
   device name : Other
   Analog OUT :
      mode : E/V
      unit : T/°C
      max : 400.000 at 5.000 V
      min : -100.000 at 0.000 V
      current : 0.000
   Analog IN 1 :
      unit : T/°C
      max : 400.000 at 5.000 V
      min : -100.000 at 0.000 V
Mode                Single sine
E (V)               0.0000
vs.                 Eoc
tE (h:m:s)          0:00:0.0000
record              0
dI                  1.000
unit dI             mA
dt (s)              0.000
fi                  1.000
unit fi             MHz
ff                  1.000
unit ff             Hz
Nd                  20
Points              per decade
spacing             Logarithmic
Va (mV)             128.0
pw                  0.50
Na                  3
corr                0
E range min (V)     -10.000
E range max (V)     10.000
I Range             Auto
Bandwidth           5
nc cycles           0
goto Ns'            0
nr cycles           0
inc. cycle          1

freq/Hz	Re(Z)/Ohm	-Im(Z)/Ohm	|Z|/Ohm	Phase(Z)/deg	time/s	<Ewe>/V	<I>/mA	Cs/µF	Cp/µF	cycle number	I Range	|Ewe|/V	|I|/A	(Q-Qo)/mA.h	Analog OUT/V	Analog IN 1/V	Re(Y)/Ohm-1	Im(Y)/Ohm-1	|Y|/Ohm-1	Phase(Y)/deg	dq/mA.h
1.00002e+06	42.3767	-11.8002	43.989	15.5604	2.38449	-0.00317922	-0.052298	-0.0134872	-0.000970545	1	10	0.000109576	2.49099e-06	1.03089e-05	0.0000000E+000	-100.08	0.0218998	-0.00609823	0.022733	-15.5604	1.03089e-05
794333	41.7806	-2.37797	41.8482	3.25751	3.57449	-0.00240335	-0.0334854	-0.0842582	-0.000272063	1	10	0.000874681	2.09013e-05	-2.0793e-06	0.0000000E+000	-100.136	0.0238573	-0.00135785	0.0238959	-3.25751	-5.43648e-06
630957	41.3566	-2.01038	41.4054	2.78301	4.76548	-0.00186077	-0.0205262	-0.125471	-0.000295791	1	10	0.00374809	9.05216e-05	-1.02301e-05	0.0000000E+000	-100.048	0.024123	-0.00117264	0.0241514	-2.78301	-3.65492e-06
501206	41.0421	-1.51185	41.0699	2.10962	5.95849	-0.0014575	-0.00990641	-0.210037	-0.000284619	1	10	0.00956019	0.000232779	-1.46853e-05	0.0000000E+000	-100.08	0.0243322	-0.000896313	0.0243487	-2.10962	-1.79333e-06
398103	40.8229	-1.10073	40.8378	1.54452	7.14949	-0.00131106	-0.00631428	-0.363199	-0.000263863	1	10	0.0194597	0.000476513	-1.59553e-05	0.0000000E+000	-100.112	0.0244782	-0.000660017	0.0244871	-1.54452	6.45483e-08
316230	40.6389	-0.805006	40.6468	1.13481	8.34049	-0.00131386	-0.00645222	-0.625198	-0.000245224	1	10	0.035	0.000861075	-1.96513e-05	0.0000000E+000	-100.104	0.0245973	-0.000487243	0.0246022	-1.13481	-9.19291e-07
251188	40.4578	-0.563199	40.4618	0.797542	9.53049	-0.00128976	-0.00584077	-1.12502	-0.000217969	1	10	0.0590179	0.00145861	-2.64789e-05	0.0000000E+000	-100.112	0.0247123	-0.000344011	0.0247147	-0.797542	-3.58241e-06
199544	40.2673	-0.393443	40.2693	0.559806	10.7235	-0.00128871	-0.00589667	-2.02722	-0.000193516	1	10	0.0951797	0.00236358	-3.07858e-05	0.0000000E+000	-100.056	0.0248316	-0.000242624	0.0248328	-0.559806	-3.22415e-06
158486	40.0636	-0.263079	40.0645	0.376229	11.7785	-0.00119138	-0.00370445	-3.81718	-0.000164587	1	10	0.128913	0.00321763	-3.17805e-05	0.0000000E+000	-100.08	0.0249592	-0.000163895	0.0249597	-0.376229	1.66189e-06
125909	40.0543	-0.156589	40.0546	0.223992	12.9705	-0.00114195	-0.00263446	-8.07239	-0.000123372	1	10	0.130394	0.00325539	-4.23354e-05	0.0000000E+000	-100.088	0.0249657	-9.76012e-05	0.0249659	-0.223992	-3.59728e-06
100004	40.081	-0.0753176	40.0811	0.107666	14.1615	-0.00112259	-0.00234739	-21.1304	-7.46141e-05	1	10	0.129802	0.00323848	-3.33851e-05	0.0000000E+000	-100.104	0.0249494	-4.68832e-05	0.0249494	-0.107666	5.73809e-06
79433.3	40.1024	-0.00808874	40.1024	0.0115567	15.3515	-0.00108153	-0.00094	-247.706	-1.00776e-05	1	10	0.129398	0.00322669	-3.30893e-05	0.0000000E+000	-100.12	0.0249362	-5.02968e-06	0.0249362	-0.0115567	4.45318e-06
63093.8	40.14	0.0330144	40.14	-0.0471248	16.4065	-0.00107081	-0.000936269	76.4063	5.16871e-05	1	10	0.130245	0.00324477	-3.1753e-05	0.0000000E+000	-100.128	0.0249128	2.04903e-05	0.0249128	0.0471248	6.24729e-07
50122.5	40.1329	0.0618113	40.1329	-0.0882449	17.4605	-0.00106278	-0.000231641	51.3712	0.000121858	1	10	0.129889	0.00323647	-2.94314e-05	0.0000000E+000	-100.096	0.0249172	3.83765e-05	0.0249172	0.0882449	4.7437e-06
39814.1	40.1712	0.0719053	40.1713	-0.102558	18.5145	-0.00103361	0.00058297	55.5934	0.00017812	1	10	0.129446	0.00322235	-3.16085e-05	0.0000000E+000	-100.088	0.0248934	4.45583e-05	0.0248934	0.102558	-3.88607e-07
31621.1	40.1365	0.0791484	40.1366	-0.112986	19.4345	-0.00105286	-0.000267049	63.5917	0.000247289	1	10	0.138659	0.00345468	-3.43926e-05	0.0000000E+000	-100.088	0.0249149	4.91317e-05	0.0249149	0.112986	-1.5466e-06
25116.9	40.1593	0.0803077	40.1594	-0.114576	20.4895	-0.00104701	-0.00030993	78.9036	0.000315528	1	10	0.132362	0.00329591	-3.35859e-05	0.0000000E+000	-100.096	0.0249007	4.97947e-05	0.0249008	0.114576	2.11751e-06
19948.8	40.1047	0.0758851	40.1048	-0.108413	21.4085	-0.00103376	4.42534e-05	105.135	0.000376416	1	10	0.13688	0.00341306	-3.08997e-05	0.0000000E+000	-100.088	0.0249346	4.71807e-05	0.0249347	0.108413	-4.59651e-07
15847.7	40.0623	0.0681081	40.0624	-0.0974059	22.3275	-0.00104317	-0.000151474	147.454	0.000426167	1	10	0.14	0.00349455	-3.66761e-05	0.0000000E+000	-100.152	0.0249611	4.24352e-05	0.0249611	0.0974059	-2.79945e-06
12590.9	40.1044	0.058069	40.1044	-0.0829612	23.3835	-0.00104442	-0.000466518	217.68	0.000456375	1	10	0.130171	0.00324581	-3.84133e-05	0.0000000E+000	-100.08	0.0249349	3.61044e-05	0.0249349	0.0829612	-1.63828e-06
10002.2	40.0808	0.0529001	40.0808	-0.075621	24.3025	-0.00102972	0.000159822	300.792	0.00052397	1	10	0.131417	0.00327879	-3.80978e-05	0.0000000E+000	-100.08	0.0249496	3.29294e-05	0.0249496	0.075621	-1.62734e-08
7944	40.0773	0.046983	40.0774	-0.0671683	25.311	-0.00102807	0.000445028	426.423	0.000586035	1	10	0.132218	0.00329906	-3.70466e-05	0.0000000E+000	-100.08	0.0249517	2.92511e-05	0.0249517	0.0671683	7.55807e-07
6307.73	40.0841	0.0379533	40.0841	-0.0542499	26.5226	-0.00101667	-0.00111708	664.81	0.000596006	1	10	0.132734	0.00331139	-3.80504e-05	0.0000000E+000	-100.08	0.0249475	2.36213e-05	0.0249475	0.0542499	1.87779e-06
5011.6	40.1357	0.00977325	40.1357	-0.0139518	28.2187	-0.00101631	-0.0217784	3249.41	0.000192673	1	11	0.127869	0.00318591	-4.5373e-05	0.0000000E+000	-100.072	0.0249155	6.06703e-06	0.0249155	0.0139518	-2.49002e-06
3981.27	40.1084	0.0104722	40.1084	-0.0149598	29.7377	-0.00101318	-0.0218524	3817.32	0.000260236	1	11	0.129908	0.00323892	-5.72839e-05	0.0000000E+000	-100.08	0.0249324	6.50981e-06	0.0249324	0.0149598	-6.6179e-06
3161.01	40.1115	0.0099387	40.1115	-0.0141966	31.2577	-0.00101572	-0.0217766	5065.99	0.000311018	1	11	0.131252	0.00327217	-7.11503e-05	0.0000000E+000	-100.128	0.0249305	6.17719e-06	0.0249305	0.0141966	-6.7272e-06
2510.8	40.0645	0.00640351	40.0645	-0.00915758	32.7777	-0.0010105	-0.0215669	9898.95	0.000252875	1	11	0.132138	0.00329813	-7.78023e-05	0.0000000E+000	-100.12	0.0249597	3.98931e-06	0.0249597	0.00915758	-1.9588e-06

File: DE_49_4_30.mpt
EC-Lab ASCII FILE
Nb header lines : 75

Potentio Electrochemical Impedance Spectroscopy

Run on channel : 4 (SN 4192)
User :
CE vs. WE compliance from -10 V to 10 V
Electrode connection : standard
Ewe ctrl range : min = -10.00 V, max = 10.00 V
Safety Limits :
	Do not start on E overload
Acquisition started on : 01/22/2020 09:34:55
Technique started on : 01/22/2020 09:34:56
Saved on :
	File : DE_49_4_30.mpr
	Directory : P:\Chemistry\Data\VMP3\Kyler\DOE\DE_49\30C\
	Host : 10.0.4.99
Device : VMP3 (SN 0183)
Address : USB
EC-Lab for windows v11.33 (software)
Internet server v11.32 (firmware)
Command interpretor v11.33 (firmware)
Electrode material :
Initial state :
Electrolyte :
Comments :
Electrode surface area : 0.001 cm²
Characteristic mass : 0.001 g
Equivalent Weight : 0.000 g/eq.
Density : 0.000 g/cm3
Record Analogic IN 1
Cycle Definition : Charge/Discharge alternance
External device configuration :
   device type : Thermostat
   device name : Other
   Analog OUT :
      mode : E/V
      unit : T/°C
      max : 400.000 at 5.000 V
      min : -100.000 at 0.000 V
      current : 0.000
   Analog IN 1 :
      unit : T/°C
      max : 400.000 at 5.000 V
      min : -100.000 at 0.000 V
Mode                Single sine
E (V)               0.0000
vs.                 Eoc
tE (h:m:s)          0:00:0.0000
record              0
dI                  1.000
unit dI             mA
dt (s)              0.000
fi                  1.000
unit fi             MHz
ff                  1.000
unit ff             Hz
Nd                  20
Points              per decade
spacing             Logarithmic
Va (mV)             128.0
pw                  0.50
Na                  3
corr                0
E range min (V)     -10.000
E range max (V)     10.000
I Range             Auto
Bandwidth           5
nc cycles           0
goto Ns'            0
nr cycles           0
inc. cycle          1

freq/Hz	Re(Z)/Ohm	-Im(Z)/Ohm	|Z|/Ohm	Phase(Z)/deg	time/s	<Ewe>/V	<I>/mA	Cs/µF	Cp/µF	cycle number	I Range	|Ewe|/V	|I|/A	(Q-Qo)/mA.h	Analog OUT/V	Analog IN 1/V	Re(Y)/Ohm-1	Im(Y)/Ohm-1	|Y|/Ohm-1	Phase(Y)/deg	dq/mA.h
1.00002e+06	0.331937	-2.89949	2.91843	83.4691	1.80249	-0.00258839	-0.0135572	-0.0548897	-0.0541796	1	9	0.000126001	4.31744e-05	-2.37672e-05	0.0000000E+000	-100.145	0.0389724	-0.340427	0.34265	-83.4691	-2.37672e-05
794333	1.16463	-4.32397	4.47806	74.9255	2.99248	-0.00215348	0.0469576	-0.0463378	-0.0432035	1	9	0.00015075	3.3664e-05	-1.02969e-05	0.0000000E+000	-100.113	0.0580776	-0.215626	0.223311	-74.9255	8.90988e-06
630957	3.14412	-4.42714	5.43002	54.618	3.91749	-0.00186414	0.0777926	-0.0569766	-0.0378741	1	9	0.000199817	3.67987e-05	1.30434e-05	0.0000000E+000	-100.185	0.106634	-0.150149	0.184162	-54.618	1.98513e-05
501206	7.22384	-3.69221	8.11273	27.0723	5.41348	-0.0014898	-0.174859	-0.0860036	-0.0178138	1	10	0.0011563	0.000142529	-3.35272e-05	0.0000000E+000	-100.105	0.109758	-0.0560988	0.123263	-27.0723	-2.78519e-05
398103	7.23347	-3.02416	7.84019	22.6888	6.60348	-0.00136817	-0.158809	-0.132196	-0.0196687	1	10	0.00312783	0.000398948	-8.49958e-05	0.0000000E+000	-100.105	0.117677	-0.0491985	0.127548	-22.6888	-2.55281e-05
316230	7.14765	-2.39792	7.53916	18.5458	7.79349	-0.00134971	-0.148715	-0.209886	-0.0212328	1	10	0.00646836	0.000857969	-0.000131956	0.0000000E+000	-100.145	0.125753	-0.042188	0.132641	-18.5458	-2.30747e-05
251188	7.17758	-1.95958	7.44027	15.2704	8.98348	-0.00134067	-0.144376	-0.323339	-0.0224289	1	10	0.0121231	0.00162939	-0.000176799	0.0000000E+000	-100.081	0.129658	-0.0353987	0.134404	-15.2704	-2.0315e-05
199544	7.13546	-1.57785	7.30784	12.4691	10.1755	-0.00135889	-0.143155	-0.505493	-0.0235652	1	10	0.0219547	0.00300427	-0.000221899	0.0000000E+000	-100.121	0.133612	-0.0295454	0.136839	-12.4691	-2.76979e-05
158486	7.13141	-1.27386	7.24429	10.1277	11.3675	-0.0013669	-0.145378	-0.788331	-0.0243757	1	10	0.0396541	0.00547384	-0.000254578	0.0000000E+000	-100.177	0.135889	-0.0242733	0.13804	-10.1277	-1.77598e-05
125909	7.10714	-1.02298	7.18038	8.19072	12.5575	-0.00137501	-0.145829	-1.23565	-0.0250804	1	10	0.0676525	0.00942184	-0.000269848	0.0000000E+000	-100.073	0.137848	-0.0198414	0.139268	-8.19072	-5.35794e-06
100004	7.08848	-0.819388	7.13568	6.5938	13.7485	-0.00138938	-0.147354	-1.94229	-0.0256108	1	10	0.103726	0.0145362	-0.000300458	0.0000000E+000	-100.145	0.139214	-0.0160923	0.140141	-6.5938	-2.66496e-05
79433.3	7.08297	-0.656954	7.11337	5.29909	14.8035	-0.0013103	-0.138532	-3.04988	-0.0260136	1	10	0.129277	0.0181738	-0.000284581	0.0000000E+000	-100.097	0.139979	-0.0129833	0.14058	-5.29909	1.81897e-05
63093.8	7.0704	-0.526075	7.08994	4.25527	15.9955	-0.00131119	-0.13914	-4.79497	-0.0263995	1	10	0.130455	0.0184	-0.000301439	0.0000000E+000	-100.081	0.140656	-0.0104656	0.141045	-4.25527	6.22096e-06
50122.5	7.06056	-0.420983	7.0731	3.4122	17.1855	-0.00130273	-0.136563	-7.54263	-0.0267198	1	10	0.130223	0.018411	-0.000320835	0.0000000E+000	-100.105	0.14113	-0.00841482	0.141381	-3.4122	-4.12908e-05
39814.1	7.0545	-0.336287	7.06251	2.72921	18.3765	-0.00125226	-0.129923	-11.887	-0.026951	1	10	0.129897	0.0183925	-0.000372404	0.0000000E+000	-100.064	0.141432	-0.00674205	0.141593	-2.72921	-2.3035e-05
31621.1	7.05012	-0.268323	7.05523	2.17959	19.4315	-0.00127534	-0.135508	-18.7579	-0.0271318	1	10	0.131217	0.0185985	-0.000421894	0.0000000E+000	-100.04	0.141636	-0.00539059	0.141739	-2.17959	-1.74963e-05
25116.9	7.04819	-0.213625	7.05143	1.73606	20.4855	-0.0012828	-0.135104	-29.6621	-0.027224	1	10	0.130781	0.0185468	-0.0004415	0.0000000E+000	-100.097	0.14175	-0.00429633	0.141815	-1.73606	-3.73914e-06
19948.8	7.04562	-0.169542	7.04766	1.37847	21.5415	-0.00127497	-0.134773	-47.0572	-0.0272328	1	10	0.130005	0.0184466	-0.000529253	0.0000000E+000	-100.153	0.14185	-0.0034134	0.141891	-1.37847	-6.21602e-05
15847.7	7.04684	-0.135287	7.04814	1.09985	22.4615	-0.00129639	-0.136061	-74.2329	-0.0273503	1	10	0.139921	0.0198522	-0.00055403	0.0000000E+000	-100.145	0.141855	-0.00272338	0.141881	-1.09985	-9.3264e-06
12590.9	7.0443	-0.107277	7.04511	0.872488	23.5155	-0.00126352	-0.134596	-117.83	-0.0273209	1	10	0.133015	0.0188805	-0.000569429	0.0000000E+000	-100.121	0.141926	-0.00216138	0.141942	-0.872488	-5.21612e-06
10002.2	7.04554	-0.0852285	7.04606	0.693062	24.4345	-0.00128245	-0.134345	-186.697	-0.0273159	1	10	0.137976	0.019582	-0.000629426	0.0000000E+000	-100.153	0.141913	-0.00171669	0.141923	-0.693062	-3.3285e-05
7944	7.04172	-0.0674523	7.04204	0.548817	25.597	-0.00119542	-0.121892	-297.019	-0.0272509	1	10	0.129415	0.0183774	-0.000649476	0.0000000E+000	-100.089	0.141998	-0.00136019	0.142004	-0.548817	-9.23172e-06
6307.73	7.0414	-0.0536204	7.0416	0.4363	26.8085	-0.0011694	-0.117831	-470.562	-0.0272856	1	10	0.131527	0.0186786	-0.000687704	0.0000000E+000	-100.113	0.142009	-0.0010814	0.142013	-0.4363	-3.35681e-05
5011.6	7.04224	-0.0425391	7.04237	0.346095	28.2697	-0.00116095	-0.116904	-746.543	-0.0272392	1	10	0.13292	0.0188743	-0.0007552	0.0000000E+000	-100.113	0.141995	-0.000857731	0.141998	-0.346095	-4.01455e-05
3981.27	7.04243	-0.0334919	7.04251	0.272481	29.7897	-0.00115433	-0.115859	-1193.6	-0.026995	1	10	0.133842	0.0190049	-0.000820144	0.0000000E+000	-100.097	0.141993	-0.000675282	0.141995	-0.272481	-2.52373e-05
3161.01	7.04319	-0.0265037	7.04324	0.215605	31.3097	-0.00116129	-0.116502	-1899.71	-0.0269003	1	10	0.134419	0.0190848	-0.000874781	0.0000000E+000	-100.137	0.141979	-0.000534272	0.14198	-0.215605	-2.4996e-05
2510.8	7.04189	-0.0213984	7.04192	0.174106	32.8297	-0.0011661	-0.115732	-2962.28	-0.0273531	1	10	0.13479	0.0191411	-0.000901542	0.0000000E+000	-100.153	0.142006	-0.000431519	0.142007	-0.174106	-1.77121e-05
1995.64	7.04075	-0.0171597	7.04078	0.139641	34.3497	-0.00117575	-0.116819	-4647.59	-0.0276062	1	10	0.135026	0.0191777	-0.000948636	0.0000000E+000	-100.056	0.142029	-0.000346154	0.14203	-0.139641	-1.38874e-05
1778.29	7.04106	-0.0150054	7.04108	0.122104	35.1099	-0.00116628	-0.116151	-5964.44	-0.0270886	1	10	0.135105	0.0191881	-0.000990438	0.0000000E+000	-100.137	0.142023	-0.00030267	0.142024	-0.122104	-4.18014e-05