Folder: ImpedanceFitter/data (part 7)

File: DE_40_13_60.mpt
EC-Lab ASCII FILE
Nb header lines : 75

Potentio Electrochemical Impedance Spectroscopy

Run on channel : 1 (SN 20909)
User :
CE vs. WE compliance from -10 V to 10 V
Electrode connection : standard
Ewe ctrl range : min = -10.00 V, max = 10.00 V
Safety Limits :
	Do not start on E overload
Acquisition started on : 01/24/2020 09:56:07
Technique started on : 01/24/2020 09:56:08
Saved on :
	File : DE_40_13_60.mpr
	Directory : P:\Chemistry\Data\VMP3\Kyler\DOE\DE_40\2ND 60C\
	Host : 10.0.4.99
Device : VMP3 (SN 0183)
Address : USB
EC-Lab for windows v11.33 (software)
Internet server v11.32 (firmware)
Command interpretor v11.33 (firmware)
Electrode material :
Initial state :
Electrolyte :
Comments :
Electrode surface area : 0.001 cm²
Characteristic mass : 0.001 g
Equivalent Weight : 0.000 g/eq.
Density : 0.000 g/cm3
Record Analogic IN 1
Cycle Definition : Charge/Discharge alternance
External device configuration :
   device type : Thermostat
   device name : Other
   Analog OUT :
      mode : E/V
      unit : T/°C
      max : 400.000 at 5.000 V
      min : -100.000 at 0.000 V
      current : 0.000
   Analog IN 1 :
      unit : T/°C
      max : 400.000 at 5.000 V
      min : -100.000 at 0.000 V
Mode                Single sine
E (V)               0.0000
vs.                 Eoc
tE (h:m:s)          0:00:0.0000
record              0
dI                  1.000
unit dI             mA
dt (s)              0.000
fi                  1.000
unit fi             MHz
ff                  1.000
unit ff             Hz
Nd                  20
Points              per decade
spacing             Logarithmic
Va (mV)             128.0
pw                  0.50
Na                  3
corr                0
E range min (V)     -10.000
E range max (V)     10.000
I Range             Auto
Bandwidth           5
nc cycles           0
goto Ns'            0
nr cycles           0
inc. cycle          1

freq/Hz	Re(Z)/Ohm	-Im(Z)/Ohm	|Z|/Ohm	Phase(Z)/deg	time/s	<Ewe>/V	<I>/mA	Cs/µF	Cp/µF	cycle number	I Range	|Ewe|/V	|I|/A	(Q-Qo)/mA.h	Analog OUT/V	Analog IN 1/V	Re(Y)/Ohm-1	Im(Y)/Ohm-1	|Y|/Ohm-1	Phase(Y)/deg	dq/mA.h
1.00002e+06	49.4869	39.1535	63.1026	-38.3506	1.74849	-0.182713	0.00277141	0.00406483	0.0015649	1	11	0.00150931	2.39184e-05	7.107e-07	0.0000000E+000	-100.086	0.0124278	0.00983275	0.0158472	38.3506	7.107e-07
794333	56.5732	30.8716	64.4483	-28.621	2.94049	-0.181751	0.00275648	0.00649021	0.0014892	1	11	0.00357398	5.54549e-05	1.62801e-06	0.0000000E+000	-100.046	0.0136203	0.00743252	0.0155163	28.621	4.75655e-07
630957	62.707	25.9079	67.8483	-22.4484	4.13248	-0.180938	0.00277962	0.00973617	0.00141963	1	11	0.00745029	0.000109808	2.48558e-06	0.0000000E+000	-100.07	0.0136219	0.00562801	0.0147388	22.4484	3.98727e-07
501206	67.3332	22.2602	70.9174	-18.2937	5.32548	-0.180315	0.00269825	0.0142651	0.00140549	1	11	0.0134788	0.000190064	3.0699e-06	0.0000000E+000	-100.062	0.0133882	0.00442612	0.0141009	18.2937	3.61339e-07
398103	70.736	18.9835	73.2391	-15.0226	6.51748	-0.179902	0.00270143	0.0210595	0.00141487	1	11	0.0218033	0.0002977	3.9494e-06	0.0000000E+000	-100.078	0.0131873	0.00353909	0.0136539	15.0226	4.63849e-07
316230	73.1182	15.9733	74.8426	-12.3232	7.70849	-0.179724	0.00274343	0.031508	0.00143521	1	11	0.0327225	0.000437218	4.62648e-06	0.0000000E+000	-100.086	0.0130535	0.00285166	0.0133614	12.3232	5.48931e-07
251188	74.6385	13.2748	75.8098	-10.0849	8.89948	-0.179662	0.00256258	0.0477302	0.00146352	1	11	0.0467159	0.000616224	4.81882e-06	0.0000000E+000	-100.078	0.0129871	0.00230981	0.0131909	10.0849	6.66033e-07
199544	75.5225	11.0776	76.3306	-8.34461	10.0915	-0.179579	0.00280055	0.0720007	0.00151646	1	11	0.0640193	0.000838711	4.60875e-06	0.0000000E+000	-100.046	0.0129622	0.00190129	0.0131009	8.34461	6.60774e-07
158486	76.0626	9.43225	76.6451	-7.06896	11.2825	-0.179518	0.0028194	0.106467	0.00161241	1	11	0.0844837	0.00110227	6.5063e-06	0.0000000E+000	-100.102	0.012948	0.00160563	0.0130471	7.06896	-1.80856e-07
125909	76.4336	8.23603	76.876	-6.15013	12.4755	-0.179492	0.0028894	0.153477	0.00176156	1	11	0.108162	0.00140697	9.03126e-06	0.0000000E+000	-100.038	0.0129331	0.00139359	0.013008	6.15013	1.46749e-06
100004	76.7338	7.40839	77.0906	-5.51462	13.3955	-0.179492	0.00267796	0.214823	0.00198392	1	11	0.136012	0.00176431	9.31407e-06	0.0000000E+000	-100.078	0.0129117	0.00124658	0.0129717	5.51462	-8.38065e-07
79433.3	76.9451	6.90157	77.254	-5.12541	14.5885	-0.17935	0.00290695	0.290315	0.00231699	1	11	0.129578	0.0016773	1.57465e-05	0.0000000E+000	-100.046	0.0128926	0.00115639	0.0129443	5.12541	1.83318e-06
63093.8	77.0986	6.69888	77.389	-4.9658	15.7805	-0.179304	0.00281438	0.376558	0.00282147	1	11	0.129615	0.00167485	1.56435e-05	0.0000000E+000	-100.07	0.0128732	0.00111852	0.0129217	4.9658	1.31537e-06
50122.5	77.2131	6.80141	77.5121	-5.03397	16.9735	-0.179259	0.00277351	0.466862	0.00359457	1	11	0.129467	0.00167028	1.61447e-05	0.0000000E+000	-100.086	0.0128514	0.00113203	0.0129012	5.03397	-6.68338e-07
39814.1	77.3213	7.22795	77.6583	-5.34046	18.0285	-0.179225	0.0029398	0.553055	0.00479096	1	11	0.140719	0.00181203	2.12613e-05	0.0000000E+000	-99.9898	0.012821	0.0011985	0.0128769	5.34046	1.74182e-06
31621.1	77.4344	8.00078	77.8466	-5.89906	19.0845	-0.179205	0.00296388	0.629086	0.00664501	1	11	0.140345	0.00180284	2.19721e-05	0.0000000E+000	-100.078	0.0127778	0.00132024	0.0128458	5.89906	1.81899e-06
25116.9	77.5674	9.14623	78.1047	-6.72489	20.1405	-0.179196	0.00285824	0.692806	0.00950039	1	11	0.138368	0.00177157	2.62064e-05	0.0000000E+000	-100.078	0.0127152	0.0014993	0.0128033	6.72489	1.63159e-06
19948.8	77.7369	10.7253	78.4733	-7.85543	21.1965	-0.179174	0.0029314	0.743868	0.0138953	1	11	0.136224	0.00173593	2.41811e-05	0.0000000E+000	-100.086	0.0126236	0.00174166	0.0127432	7.85543	-6.29069e-07
15847.7	77.9541	12.8084	78.9993	-9.33073	22.2525	-0.17916	0.00295884	0.784078	0.0206112	1	11	0.133971	0.00169585	2.43297e-05	0.0000000E+000	-100.11	0.0124909	0.00205234	0.0126583	9.33073	-6.2994e-07
12590.9	78.2518	15.4776	79.7678	-11.1883	23.3085	-0.179156	0.00288344	0.81669	0.0307477	1	11	0.129379	0.00162195	2.81083e-05	0.0000000E+000	-100.078	0.0122981	0.00243248	0.0125364	11.1883	2.27633e-06
10002.2	78.6668	18.8607	80.8962	-13.4824	24.2275	-0.179151	0.00290695	0.843657	0.045859	1	11	0.134156	0.00165837	3.12128e-05	0.0000000E+000	-100.062	0.0120209	0.00288205	0.0123615	13.4824	1.84682e-06
7944	79.2214	23.1074	82.5226	-16.261	25.236	-0.179126	0.00310497	0.867021	0.0679808	1	11	0.137269	0.00166341	3.22319e-05	0.0000000E+000	-100.126	0.0116331	0.00339317	0.0121179	16.261	6.19658e-07
6307.73	79.9582	28.399	84.8518	-19.5537	26.4466	-0.179102	0.00309788	0.888472	0.099524	1	11	0.139099	0.00163932	3.33052e-05	0.0000000E+000	-100.094	0.0111056	0.0039444	0.0117853	19.5537	-8.85824e-07
5011.6	80.9395	34.9229	88.1522	-23.3387	27.9077	-0.179109	0.0030165	0.909356	0.142721	1	11	0.139989	0.00158804	3.26703e-05	0.0000000E+000	-100.062	0.0104158	0.00449411	0.011344	23.3387	-4.45164e-07
3981.27	82.2378	42.9419	92.7743	-27.5721	29.4277	-0.179092	0.00314322	0.93093	0.199445	1	11	0.140221	0.00151143	3.33402e-05	0.0000000E+000	-100.046	0.00955469	0.00498914	0.0107788	27.5721	1.35155e-06
3161.01	83.9591	52.7914	99.1769	-32.1607	30.9467	-0.179088	0.00317943	0.953742	0.270232	1	11	0.140036	0.00141198	3.31004e-05	0.0000000E+000	-100.062	0.00853585	0.00536713	0.010083	32.1607	-1.60137e-07
[...]
1258.79	96.8085	118.547	153.053	-50.7641	37.028	-0.179098	0.00313667	1.06653	0.639841	1	11	0.138021	0.000901785	3.92866e-05	0.0000000E+000	-100.07	0.00413264	0.00506064	0.00653367	50.7641	1.02342e-06
1000.32	101.933	144.652	176.96	-54.8286	38.5457	-0.179082	0.00319826	1.09991	0.734952	1	11	0.137616	0.000777671	4.12494e-05	0.0000000E+000	-100.062	0.00325512	0.00461932	0.00565101	54.8286	1.38294e-06
794.238	108.003	176.584	206.994	-58.5491	40.064	-0.179094	0.00315533	1.1348	0.825859	1	11	0.137301	0.000663308	4.27841e-05	0.0000000E+000	-100.118	0.0025207	0.00412132	0.00483106	58.5491	2.43435e-07
631.01	115.102	215.536	244.345	-61.8965	41.5844	-0.179087	0.00315197	1.17021	0.910539	1	11	0.137067	0.000560957	4.49592e-05	0.0000000E+000	-99.9978	0.00192787	0.00361006	0.00409258	61.8965	1.01053e-06
501.444	123.316	263.147	290.608	-64.8913	43.0982	-0.179088	0.00318948	1.20614	0.988964	1	11	0.136905	0.0004711	4.6476e-05	0.0000000E+000	-100.102	0.00146017	0.0031159	0.00344106	64.8913	1.01761e-06
398.089	132.833	322.017	348.338	-67.5838	44.8677	-0.179094	0.00121844	1.24154	1.061	1	12	0.13909	0.000399296	4.69905e-05	0.0000000E+000	-100.046	0.00109472	0.00265385	0.00287078	67.5838	1.45076e-07
316.316	143.767	394.231	419.628	-69.9642	46.3849	-0.179099	0.00117476	1.27629	1.12648	1	12	0.138243	0.000329441	4.74202e-05	0.0000000E+000	-100.038	0.000816455	0.00223884	0.00238306	69.9642	-6.54232e-08
251.044	156.389	483.9	508.544	-72.09	47.8969	-0.179092	0.00116703	1.31013	1.18623	1	12	0.137665	0.000270705	4.80122e-05	0.0000000E+000	-100.054	0.000604712	0.00187111	0.0019664	72.09	1.22873e-07
199.553	170.861	594.047	618.13	-73.9536	49.4202	-0.17908	0.00116916	1.34258	1.24	1	12	0.137277	0.000222084	4.83443e-05	0.0000000E+000	-100.07	0.000447181	0.00155475	0.00161778	73.9536	2.06635e-07
158.428	187.75	731.356	755.07	-75.6022	50.9547	-0.179087	0.00116845	1.37359	1.28867	1	12	0.137018	0.000181464	4.88915e-05	0.0000000E+000	-100.102	0.00032931	0.00128279	0.00132438	75.6022	1.50504e-07
125.846	207.518	901.292	924.874	-77.0339	52.4634	-0.179086	0.00117603	1.40319	1.33255	1	12	0.136848	0.000147964	4.94028e-05	0.0000000E+000	-100.078	0.000242601	0.00105366	0.00108123	77.0339	1.14883e-07
100.032	230.666	1111.74	1135.42	-78.2785	53.9687	-0.179096	0.00117832	1.43112	1.37206	1	12	0.136736	0.000120428	4.9728e-05	0.0000000E+000	-100.11	0.000178925	0.000862367	0.000880733	78.2785	2.4093e-07
79.4155	258.538	1374.79	1398.89	-79.3495	55.4992	-0.179086	0.00118862	1.45774	1.40794	1	12	0.136666	9.76959e-05	5.02171e-05	0.0000000E+000	-100.078	0.000132117	0.000702539	0.000714854	79.3495	1.49007e-07
63.0823	292.08	1701.13	1726.02	-80.2574	57.0308	-0.179082	0.0011876	1.48312	1.44065	1	12	0.136617	7.91514e-05	5.07919e-05	0.0000000E+000	-100.062	9.80419e-05	0.000571012	0.000579368	80.2574	2.79031e-07
50.1444	332.861	2104.85	2131.01	-81.0137	58.5312	-0.179095	0.00117869	1.50791	1.47112	1	12	0.136587	6.40951e-05	5.13204e-05	0.0000000E+000	-100.078	7.32981e-05	0.000463502	0.000469262	81.0137	2.61262e-07
39.8089	383.914	2610.65	2638.73	-81.6342	60.0577	-0.179087	0.00117201	1.53141	1.49899	1	12	0.136571	5.17565e-05	5.17677e-05	0.0000000E+000	-100.03	5.51371e-05	0.000374938	0.00037897	81.6342	1.7421e-07
31.6296	446.336	3237.45	3268.07	-82.1503	61.7804	-0.179082	0.00100521	1.55426	1.52527	1	13	0.136763	4.18482e-05	5.22913e-05	0.0000000E+000	-100.102	4.17907e-05	0.000303124	0.000305991	82.1503	1.70367e-07
28.1701	483.303	3608.5	3640.73	-82.3715	62.5858	-0.179087	0.00101437	1.56569	1.5381	1	13	0.136718	3.75525e-05	5.24283e-05	0.0000000E+000	-100.078	3.64623e-05	0.00027224	0.000274671	82.3715	1.37042e-07

File: DE_40_14_60.mpt
EC-Lab ASCII FILE
Nb header lines : 75

Potentio Electrochemical Impedance Spectroscopy

Run on channel : 2 (SN 20919)
User :
CE vs. WE compliance from -10 V to 10 V
Electrode connection : standard
Ewe ctrl range : min = -10.00 V, max = 10.00 V
Safety Limits :
	Do not start on E overload
Acquisition started on : 01/24/2020 09:55:50
Technique started on : 01/24/2020 09:55:51
Saved on :
	File : DE_40_14_60.mpr
	Directory : P:\Chemistry\Data\VMP3\Kyler\DOE\DE_40\2ND 60C\
	Host : 10.0.4.99
Device : VMP3 (SN 0183)
Address : USB
EC-Lab for windows v11.33 (software)
Internet server v11.32 (firmware)
Command interpretor v11.33 (firmware)
Electrode material :
Initial state :
Electrolyte :
Comments :
Electrode surface area : 0.001 cm²
Characteristic mass : 0.001 g
Equivalent Weight : 0.000 g/eq.
Density : 0.000 g/cm3
Record Analogic IN 1
Cycle Definition : Charge/Discharge alternance
External device configuration :
   device type : Thermostat
   device name : Other
   Analog OUT :
      mode : E/V
      unit : T/°C
      max : 400.000 at 5.000 V
      min : -100.000 at 0.000 V
      current : 0.000
   Analog IN 1 :
      unit : T/°C
      max : 400.000 at 5.000 V
      min : -100.000 at 0.000 V
Mode                Single sine
E (V)               0.0000
vs.                 Eoc
tE (h:m:s)          0:00:0.0000
record              0
dI                  1.000
unit dI             mA
dt (s)              0.000
fi                  1.000
unit fi             MHz
ff                  1.000
unit ff             Hz
Nd                  20
Points              per decade
spacing             Logarithmic
Va (mV)             128.0
pw                  0.50
Na                  3
corr                0
E range min (V)     -10.000
E range max (V)     10.000
I Range             Auto
Bandwidth           5
nc cycles           0
goto Ns'            0
nr cycles           0
inc. cycle          1

freq/Hz	Re(Z)/Ohm	-Im(Z)/Ohm	|Z|/Ohm	Phase(Z)/deg	time/s	<Ewe>/V	<I>/mA	Cs/µF	Cp/µF	cycle number	I Range	|Ewe|/V	|I|/A	(Q-Qo)/mA.h	Analog OUT/V	Analog IN 1/V	Re(Y)/Ohm-1	Im(Y)/Ohm-1	|Y|/Ohm-1	Phase(Y)/deg	dq/mA.h
1.00002e+06	55.9174	19.4487	59.2031	-19.1782	1.64647	0.00400709	0.00151139	0.00818318	0.000883106	1	11	0.000990478	1.67302e-05	3.16321e-07	0.0000000E+000	-100.11	0.0159536	0.00554882	0.016891	19.1782	3.16321e-07
794333	58.8129	15.0315	60.7034	-14.3368	2.83849	0.00477108	0.00145768	0.0133296	0.000817321	1	11	0.00273955	4.51301e-05	8.27467e-07	0.0000000E+000	-100.142	0.0159605	0.0040792	0.0164735	14.3368	3.28856e-07
630957	62.81	12.6565	64.0724	-11.3928	4.03047	0.00532198	0.00144504	0.01993	0.000777663	1	11	0.00622751	9.71949e-05	1.16879e-06	0.0000000E+000	-100.046	0.0152998	0.00308298	0.0156073	11.3928	1.6374e-07
501206	65.9583	11.0434	66.8764	-9.50483	5.22048	0.00568136	0.00145322	0.0287543	0.000784078	1	11	0.011825	0.000176819	2.17933e-06	0.0000000E+000	-100.11	0.0147477	0.0024692	0.014953	9.50483	7.09223e-07
398103	68.1588	9.66478	68.8406	-8.07062	6.41148	0.00584485	0.00150173	0.0413649	0.000815318	1	11	0.0197078	0.000286282	2.20664e-06	0.0000000E+000	-100.07	0.0143824	0.0020394	0.0145263	8.07062	2.74815e-07
316230	69.6514	8.31368	70.1458	-6.8067	7.6015	0.00584057	0.00148296	0.0605374	0.000850368	1	11	0.0301683	0.00043008	1.70758e-06	0.0000000E+000	-100.078	0.0141555	0.00168962	0.014256	6.8067	-7.31026e-07
251188	70.5781	7.14006	70.9383	-5.7767	8.79147	0.00583661	0.0015508	0.0887401	0.000899005	1	11	0.0436098	0.000614756	1.24796e-06	0.0000000E+000	-100.11	0.0140252	0.00141886	0.0140968	5.7767	-1.07421e-06
199544	71.165	6.15358	71.4305	-4.94203	9.98248	0.00582125	0.00138652	0.129615	0.000961929	1	11	0.0603251	0.000844529	2.98416e-06	0.0000000E+000	-100.094	0.0139476	0.00120604	0.0139996	4.94203	1.51319e-06
158486	71.5337	5.41629	71.7385	-4.32998	11.1735	0.00584131	0.00144748	0.185408	0.00105688	1	11	0.0800283	0.00111556	5.105e-06	0.0000000E+000	-100.11	0.0138997	0.00105244	0.0139395	4.32998	2.14547e-06
125909	71.773	4.91791	71.9413	-3.9198	12.3665	0.00584159	0.00138784	0.257029	0.00120112	1	11	0.102719	0.00142782	7.71095e-06	0.0000000E+000	-100.062	0.0138677	0.00095022	0.0139002	3.9198	1.56704e-06
100004	71.9494	4.63693	72.0987	-3.68744	13.2855	0.00585052	0.00138209	0.343221	0.00141964	1	11	0.129236	0.00179248	8.78889e-06	0.0000000E+000	-100.118	0.0138412	0.000892022	0.0138699	3.68744	1.66947e-06
79433.3	72.0714	4.56148	72.2156	-3.62149	14.4775	0.00595293	0.00166792	0.43925	0.00175252	1	11	0.129634	0.00179509	1.56377e-05	0.0000000E+000	-100.086	0.0138198	0.00087467	0.0138474	3.62149	3.13298e-06
63093.8	72.1634	4.69959	72.3162	-3.72609	15.6685	0.00599381	0.00157648	0.536752	0.00226684	1	11	0.129562	0.00179161	1.89207e-05	0.0000000E+000	-100.134	0.0137989	0.000898646	0.0138282	3.72609	1.92124e-06
50122.5	72.2348	5.05268	72.4113	-4.00121	16.8605	0.00603149	0.00143543	0.628443	0.00305982	1	11	0.129426	0.00178737	2.15064e-05	0.0000000E+000	-100.086	0.0137763	0.000963626	0.01381	4.00121	1.52245e-06
39814.1	72.3068	5.64894	72.5271	-4.46714	18.0525	0.00609942	0.00180489	0.707647	0.00429289	1	11	0.12931	0.00178293	2.16062e-05	0.0000000E+000	-100.102	0.0137461	0.00107391	0.0137879	4.46714	8.75815e-07
31621.1	72.3948	6.51764	72.6876	-5.14442	19.1075	0.00609856	0.00163205	0.77224	0.00620887	1	11	0.130358	0.0017934	2.16854e-05	0.0000000E+000	-100.094	0.0137021	0.00123359	0.0137575	5.14442	5.1866e-07
25116.9	72.5025	7.68997	72.9092	-6.05443	20.1625	0.00610895	0.001525	0.824004	0.00916672	1	11	0.130061	0.00178388	2.13149e-05	0.0000000E+000	-100.094	0.0136392	0.00144664	0.0137157	6.05443	-1.97241e-06
19948.8	72.6336	9.22621	73.2172	-7.23917	21.2175	0.00612837	0.00165175	0.86473	0.0137309	1	11	0.129723	0.00177176	2.20499e-05	0.0000000E+000	-100.11	0.0135491	0.00172106	0.013658	7.23917	-1.05236e-06
15847.7	72.7993	11.1974	73.6554	-8.74426	22.2735	0.0061319	0.00156032	0.896883	0.0207283	1	11	0.129224	0.00175444	2.23805e-05	0.0000000E+000	-100.062	0.0134189	0.00206399	0.0135767	8.74426	-8.73156e-08
12590.9	73.0251	13.6931	74.2978	-10.6204	23.1935	0.00612595	0.0014529	0.923123	0.0313555	1	11	0.137209	0.00184675	2.40089e-05	0.0000000E+000	-100.078	0.0132288	0.00248057	0.0134594	10.6204	9.90641e-07
10002.2	73.3132	16.8366	75.2217	-12.9339	24.2485	0.00613708	0.00144639	0.945078	0.047347	1	11	0.129482	0.00172133	2.08686e-05	0.0000000E+000	-100.086	0.0129568	0.00297556	0.013294	12.9339	-1.86649e-06
7944	73.6853	20.7693	76.5564	-15.7413	25.257	0.00616467	0.00182533	0.964626	0.070997	1	11	0.132943	0.00173653	2.1575e-05	0.0000000E+000	-100.086	0.0125724	0.00354372	0.0130623	15.7413	-9.57304e-08
6307.73	74.1693	25.6752	78.4875	-19.0943	26.4685	0.00618771	0.00185079	0.982727	0.105162	1	11	0.135057	0.00172074	2.22114e-05	0.0000000E+000	-100.062	0.0120399	0.00416785	0.0127409	19.0943	-1.22493e-06
5011.6	74.78	31.7552	81.2431	-23.0084	27.9297	0.00619015	0.00180061	1.00007	0.152787	1	11	0.136141	0.00167573	2.23433e-05	0.0000000E+000	-100.078	0.0113295	0.00481107	0.0123087	23.0084	-6.93572e-07
3981.27	75.5682	39.2976	85.1754	-27.4757	29.4497	0.00619243	0.00183797	1.01726	0.216539	1	11	0.136517	0.00160278	2.08692e-05	0.0000000E+000	-100.11	0.0104162	0.00541674	0.0117405	27.4757	-8.90657e-07
3161.01	76.5717	48.6499	90.7196	-32.4299	30.9697	0.00618933	0.00178797	1.03493	0.297628	1	11	0.13639	0.00150342	1.92382e-05	0.0000000E+000	-100.03	0.00930393	0.00591126	0.011023	32.4299	-8.90244e-07
2510.8	77.8329	60.1964	98.3949	-37.7186	32.4897	0.00617936	0.0017101	1.05302	0.394124	1	11	0.135964	0.00138182	1.93075e-05	0.0000000E+000	-100.086	0.00803929	0.00621764	0.0101631	37.7186	7.3239e-07
1995.64	79.3836	74.4197	108.812	-43.1514	34.0097	0.00617421	0.00164801	1.07164	0.501271	1	11	0.135382	0.00124418	2.03113e-05	0.0000000E+000	-100.054	0.00670467	0.00628542	0.00919016	43.1514	-6.27309e-07
1585.51	81.2862	92.0419	122.797	-48.5509	35.5297	0.0061983	0.00188144	1.0906	0.612717	1	11	0.134781	0.00109759	2.23065e-05	0.0000000E+000	-100.078	0.00539063	0.00610391	0.0081435	48.5509	1.11711e-06
1258.79	83.5911	113.921	141.299	-53.7301	37.05	0.00619258	0.00187604	1.10985	0.721424	1	11	0.134216	0.000949868	2.30851e-05	0.0000000E+000	-100.078	0.00418678	0.0057059	0.00707718	53.7301	-1.67272e-09
1000.32	86.3744	140.919	165.284	-58.4943	38.5677	0.00619366	0.00183255	1.12905	0.820712	1	11	0.133753	0.00080923	2.32488e-05	0.0000000E+000	-100.062	0.00316173	0.00515833	0.0060502	58.4943	-3.23014e-07
794.238	89.7163	174.57	196.275	-62.8002	40.0859	0.00619806	0.00186805	1.14789	0.908051	1	11	0.133386	0.000679588	2.38301e-05	0.0000000E+000	-100.094	0.00232885	0.00453149	0.00509489	62.8002	8.16773e-07
631.01	93.7511	216.253	235.7	-66.562	41.6064	0.0061889	0.00185373	1.16633	0.981808	1	11	0.133117	0.000564773	2.37303e-05	0.0000000E+000	-100.054	0.00168755	0.00389263	0.00424268	66.562	2.63266e-08
501.444	98.6849	267.956	285.551	-69.7819	43.1202	0.00619493	0.00181953	1.1845	1.04303	1	11	0.132926	0.000465507	2.42627e-05	0.0000000E+000	-100.078	0.00121028	0.00328623	0.00350201	69.7819	3.30969e-08
398.089	104.726	332.661	348.756	-72.5253	44.8897	0.00618484	0.000142177	1.20182	1.09345	1	12	0.135174	0.000387588	2.4716e-05	0.0000000E+000	-100.046	0.000861017	0.002735	0.00286733	72.5253	1.4701e-07
316.316	112.216	412.666	427.651	-74.7875	46.4069	0.00619312	0.00013964	1.21927	1.13532	1	12	0.134251	0.000313926	2.48456e-05	0.0000000E+000	-100.086	0.000613585	0.00225642	0.00233835	74.7875	3.23715e-07
251.044	121.594	512.65	526.873	-76.6567	47.9189	0.00619459	0.000156514	1.23666	1.17079	1	12	0.133652	0.000253671	2.48542e-05	0.0000000E+000	-100.062	0.000438027	0.00184675	0.00189799	76.6567	1.80879e-07
199.553	133.228	636.019	649.823	-78.1692	49.4432	0.00619879	0.000128204	1.25398	1.20127	1	12	0.133251	0.000205058	2.5305e-05	0.0000000E+000	-100.054	0.000315504	0.00150619	0.00153888	78.1692	2.82842e-07
158.428	147.92	790.242	803.967	-79.3979	50.9778	0.00620125	0.000149837	1.27124	1.22821	1	12	0.133	0.00016543	2.54002e-05	0.0000000E+000	-100.102	0.00022885	0.0012226	0.00124383	79.3979	-8.46033e-09
125.846	166.272	981.126	995.116	-80.3814	52.4864	0.00619619	0.000146497	1.28901	1.25302	1	12	0.132835	0.000133487	2.54337e-05	0.0000000E+000	-100.102	0.000167909	0.000990781	0.00100491	80.3814	2.27535e-08
112.19	177.069	1093.07	1107.32	-80.7985	53.2319	0.00619103	0.000118784	1.29783	1.26464	1	12	0.132771	0.000119903	2.55322e-05	0.0000000E+000	-100.086	0.000144409	0.000891459	0.000903079	80.7985	9.84623e-08