Folder: ImpedanceFitter/data (part 8)

File: DE_40_15_60.mpt
EC-Lab ASCII FILE
Nb header lines : 75

Potentio Electrochemical Impedance Spectroscopy

Run on channel : 3 (SN 20921)
User :
CE vs. WE compliance from -10 V to 10 V
Electrode connection : standard
Ewe ctrl range : min = -10.00 V, max = 10.00 V
Safety Limits :
	Do not start on E overload
Acquisition started on : 01/24/2020 09:55:40
Technique started on : 01/24/2020 09:55:41
Saved on :
	File : DE_40_15_60.mpr
	Directory : P:\Chemistry\Data\VMP3\Kyler\DOE\DE_40\2ND 60C\
	Host : 10.0.4.99
Device : VMP3 (SN 0183)
Address : USB
EC-Lab for windows v11.33 (software)
Internet server v11.32 (firmware)
Command interpretor v11.33 (firmware)
Electrode material :
Initial state :
Electrolyte :
Comments :
Electrode surface area : 0.001 cm²
Characteristic mass : 0.001 g
Equivalent Weight : 0.000 g/eq.
Density : 0.000 g/cm3
Record Analogic IN 1
Cycle Definition : Charge/Discharge alternance
External device configuration :
   device type : Thermostat
   device name : Other
   Analog OUT :
      mode : E/V
      unit : T/°C
      max : 400.000 at 5.000 V
      min : -100.000 at 0.000 V
      current : 0.000
   Analog IN 1 :
      unit : T/°C
      max : 400.000 at 5.000 V
      min : -100.000 at 0.000 V
Mode                Single sine
E (V)               0.0000
vs.                 Eoc
tE (h:m:s)          0:00:0.0000
record              0
dI                  1.000
unit dI             mA
dt (s)              0.000
fi                  1.000
unit fi             MHz
ff                  1.000
unit ff             Hz
Nd                  20
Points              per decade
spacing             Logarithmic
Va (mV)             128.0
pw                  0.50
Na                  3
corr                0
E range min (V)     -10.000
E range max (V)     10.000
I Range             Auto
Bandwidth           5
nc cycles           0
goto Ns'            0
nr cycles           0
inc. cycle          1

freq/Hz	Re(Z)/Ohm	-Im(Z)/Ohm	|Z|/Ohm	Phase(Z)/deg	time/s	<Ewe>/V	<I>/mA	Cs/µF	Cp/µF	cycle number	I Range	|Ewe|/V	|I|/A	(Q-Qo)/mA.h	Analog OUT/V	Analog IN 1/V	Re(Y)/Ohm-1	Im(Y)/Ohm-1	|Y|/Ohm-1	Phase(Y)/deg	dq/mA.h
1.00002e+06	14.1491	1.05985	14.1887	-4.28377	1.8456	-0.0615278	0.24948	0.150165	0.000837852	1	9	3.64935e-05	2.57201e-06	2.59286e-05	0.0000000E+000	-100.096	0.0702815	0.00526448	0.0704784	4.28377	2.59286e-05
794333	65.0697	15.5666	66.9058	-13.454	3.61549	-0.0608422	0.00206679	0.0128713	0.000696762	1	11	0.0011395	1.70314e-05	5.03282e-05	0.0000000E+000	-100.08	0.0145362	0.0034775	0.0149464	13.454	4.51318e-07
630957	69.0761	12.9594	70.2812	-10.6258	4.80647	-0.0602646	0.00226437	0.0194642	0.0006618	1	11	0.00416252	5.92267e-05	5.10441e-05	0.0000000E+000	-100.072	0.0139846	0.00262365	0.0142286	10.6258	4.53439e-07
501206	72.0115	11.1344	72.8672	-8.78948	5.99648	-0.0599027	0.00201237	0.0285191	0.000665897	1	11	0.00960052	0.000131754	5.14824e-05	0.0000000E+000	-100.056	0.0135624	0.00209702	0.0137236	8.78948	-5.51152e-09
398103	73.9566	9.53784	74.5691	-7.3486	7.18848	-0.0597562	0.00208339	0.0419155	0.000685734	1	11	0.0176531	0.000236734	5.16584e-05	0.0000000E+000	-100.04	0.0133002	0.00171527	0.0134104	7.3486	-1.72666e-07
316230	75.1971	8.07211	75.6291	-6.12701	8.37848	-0.059756	0.00201462	0.0623491	0.000710274	1	11	0.0285683	0.000377742	5.34452e-05	0.0000000E+000	-100.08	0.0131469	0.00141127	0.0132224	6.12701	6.49536e-07
251188	75.94	6.8278	76.2463	-5.13768	9.57048	-0.0597473	0.00213689	0.0927985	0.000744157	1	11	0.0426058	0.000558791	5.20444e-05	0.0000000E+000	-100.072	0.0130627	0.00117447	0.0131154	5.13768	-6.92743e-07
199544	76.3539	5.84451	76.5773	-4.37717	10.7615	-0.0597146	0.00227352	0.136469	0.000794934	1	11	0.0600491	0.000784163	5.18407e-05	0.0000000E+000	-100.08	0.0130206	0.000996663	0.0130587	4.37717	-9.01935e-07
158486	76.5939	5.13789	76.7661	-3.83763	11.9535	-0.0596819	0.00236728	0.195454	0.000875539	1	11	0.080588	0.00104979	5.40166e-05	0.0000000E+000	-100.104	0.0129974	0.000871859	0.0130266	3.83763	1.68716e-06
125909	76.7332	4.68734	76.8762	-3.49564	13.1445	-0.0596795	0.00222545	0.269672	0.00100255	1	11	0.104121	0.00135439	5.15175e-05	0.0000000E+000	-100.072	0.0129837	0.000793127	0.0130079	3.49564	-1.39205e-06
100004	76.8442	4.458	76.9734	-3.3202	14.0635	-0.0596663	0.00236301	0.356996	0.00119746	1	11	0.131446	0.00170769	5.1703e-05	0.0000000E+000	-100.096	0.0129697	0.000752416	0.0129915	3.3202	5.43541e-07
79433.3	76.9137	4.43565	77.0415	-3.30062	15.2535	-0.0595468	0.00253207	0.451711	0.00149736	1	11	0.129631	0.00168261	4.76836e-05	0.0000000E+000	-100.104	0.0129585	0.000747323	0.01298	3.30062	-1.15576e-06
63093.8	76.9662	4.63002	77.1053	-3.44256	16.4435	-0.0595165	0.0023509	0.544817	0.00196448	1	11	0.129537	0.00168	4.92255e-05	0.0000000E+000	-100.112	0.0129459	0.000778778	0.0129693	3.44256	1.58249e-08
50122.5	77.0167	5.03369	77.1811	-3.73944	17.6345	-0.0595036	0.00213935	0.630813	0.0026832	1	11	0.129455	0.00167729	5.18651e-05	0.0000000E+000	-100.088	0.012929	0.000845017	0.0129565	3.73944	2.78954e-06
39814.1	77.0699	5.68122	77.279	-4.21594	18.6895	-0.0594863	0.00196787	0.703626	0.00380279	1	11	0.140712	0.00182083	5.24182e-05	0.0000000E+000	-100.056	0.0129051	0.000951302	0.0129401	4.21594	1.49766e-06
31621.1	77.1426	6.59769	77.4242	-4.88838	19.7435	-0.0594469	0.00201372	0.76287	0.00553963	1	11	0.14042	0.00181365	5.33529e-05	0.0000000E+000	-100.072	0.0128689	0.00110062	0.0129159	4.88838	3.97463e-07
25116.9	77.231	7.82914	77.6268	-5.78847	20.7995	-0.0594121	0.00230002	0.809356	0.00823274	1	11	0.138509	0.0017843	5.397e-05	0.0000000E+000	-100.032	0.0128165	0.00129924	0.0128821	5.78847	-9.42752e-07
19948.8	77.3427	9.43169	77.9157	-6.9527	21.8545	-0.059394	0.00232238	0.845891	0.0123949	1	11	0.136329	0.0017497	5.66455e-05	0.0000000E+000	-100.04	0.01274	0.0015536	0.0128344	6.9527	8.19804e-08
15847.7	77.4941	11.4751	78.3391	-8.42295	22.9095	-0.0593731	0.00238911	0.875184	0.0187781	1	11	0.134136	0.00171225	5.4293e-05	0.0000000E+000	-100.064	0.0126273	0.00186981	0.012765	8.42295	-1.13106e-06
12590.9	77.696	14.0593	78.9578	-10.2568	23.9655	-0.0593825	0.00235667	0.899081	0.0285059	1	11	0.129481	0.00163988	5.28981e-05	0.0000000E+000	-100.08	0.0124626	0.00225514	0.012665	10.2568	-2.78903e-06
10002.2	77.9699	17.3114	79.8686	-12.5181	24.8855	-0.0593724	0.00231381	0.919159	0.0431821	1	11	0.134556	0.00168471	5.20342e-05	0.0000000E+000	-100.08	0.0122229	0.00271382	0.0125206	12.5181	-1.25967e-06
7944	78.3329	21.3828	81.199	-15.2683	25.894	-0.0593583	0.00244912	0.936949	0.0649748	1	11	0.137921	0.00169856	5.23499e-05	0.0000000E+000	-100.088	0.0118807	0.00324313	0.0123154	15.2683	6.55231e-07
6307.73	78.7919	26.4715	83.1198	-18.5707	27.1055	-0.0593447	0.0023632	0.953165	0.0966755	1	11	0.139971	0.00168397	5.37237e-05	0.0000000E+000	-100.088	0.0114044	0.00383151	0.0120308	18.5707	1.22293e-06
5011.6	79.3691	32.7805	85.8721	-22.4413	28.7877	-0.0593195	0.00255387	0.968785	0.141174	1	11	0.129281	0.00150551	5.63065e-05	0.0000000E+000	-100.072	0.0107633	0.00444541	0.0116452	22.4413	2.21055e-06
3981.27	80.1524	40.608	89.8522	-26.8683	30.3077	-0.059346	0.00229721	0.984435	0.201072	1	11	0.129645	0.00144287	5.74324e-05	0.0000000E+000	-100.024	0.00992794	0.00502984	0.0111294	26.8683	-4.28758e-07
3161.01	81.176	50.3305	95.5129	-31.7996	31.8277	-0.0593307	0.00252367	1.00038	0.27778	1	11	0.129564	0.00135651	5.82857e-05	0.0000000E+000	-100.08	0.00889824	0.00551706	0.0104698	31.7996	2.96535e-07
2510.8	82.505	62.3385	103.408	-37.0737	33.3477	-0.0593313	0.00240251	1.01684	0.369537	1	11	0.129208	0.0012495	5.76637e-05	0.0000000E+000	-100.104	0.00771567	0.00582975	0.00967045	37.0737	-2.40964e-07
1995.64	84.2047	77.1191	114.183	-42.4851	34.8677	-0.0593392	0.00233951	1.03413	0.471733	1	11	0.128713	0.00112725	5.83771e-05	0.0000000E+000	-100.04	0.00645851	0.00591505	0.00875786	42.4851	-2.36834e-07
1585.51	86.3394	95.3878	128.66	-47.8505	36.3877	-0.0593281	0.00233	1.05235	0.578441	1	11	0.128179	0.000996263	5.99635e-05	0.0000000E+000	-100.064	0.00521583	0.00576245	0.00777244	47.8505	1.48373e-07
1258.79	89.027	118.011	147.826	-52.9694	37.9089	-0.0593316	0.00233186	1.07138	0.682793	1	11	0.127677	0.0008637	6.16565e-05	0.0000000E+000	-100.096	0.004074	0.00540036	0.00676471	52.9694	4.65931e-07
1000.32	92.3246	145.842	172.609	-57.6643	39.4267	-0.0593498	0.00213913	1.09093	0.778823	1	11	0.127266	0.000737307	6.34402e-05	0.0000000E+000	-100.072	0.0030988	0.00489506	0.00579346	57.6643	1.10456e-06
794.238	96.4183	180.36	204.514	-61.8715	40.9449	-0.0593398	0.00231619	1.11104	0.864095	1	11	0.126939	0.000620685	6.46569e-05	0.0000000E+000	-100.096	0.00230522	0.00431213	0.00488963	61.8715	1.69764e-07
631.01	101.408	222.964	244.942	-65.5431	42.4654	-0.0593334	0.00237416	1.13123	0.937331	1	11	0.1267	0.000517266	6.62641e-05	0.0000000E+000	-100.04	0.00169024	0.00371629	0.00408261	65.5431	7.38e-07
501.444	107.543	275.623	295.861	-68.6851	44.2292	-0.0593415	0.000220798	1.15155	0.999397	1	12	0.129841	0.000438859	6.67011e-05	0.0000000E+000	-100.056	0.00122859	0.00314877	0.00337997	68.6851	1.73873e-07
398.089	115.144	341.049	359.962	-71.3444	45.7487	-0.0593464	0.000223799	1.17226	1.05231	1	12	0.128588	0.000357227	6.70883e-05	0.0000000E+000	-100.056	0.000888648	0.00263211	0.00277807	71.3444	2.40516e-07
316.316	124.465	421.792	439.773	-73.5594	47.2659	-0.0593398	0.000210933	1.19289	1.09734	1	12	0.127752	0.000290494	6.7238e-05	0.0000000E+000	-100.064	0.000643561	0.00218093	0.0022739	73.5594	1.97311e-07
251.044	136.085	522.308	539.745	-75.3965	48.7779	-0.0593502	0.000186917	1.21379	1.13663	1	12	0.127196	0.000235659	6.69637e-05	0.0000000E+000	-100.048	0.000467127	0.00179287	0.00185273	75.3965	-1.11173e-07
199.553	150.404	645.942	663.222	-76.8926	50.3022	-0.059352	0.000206529	1.23472	1.17122	1	12	0.126842	0.000191251	6.7148e-05	0.0000000E+000	-100.072	0.000341934	0.00146851	0.00150779	76.8926	2.4366e-07
158.428	168.354	799.697	817.226	-78.1115	51.8367	-0.0593423	0.000205149	1.25621	1.2029	1	12	0.126603	0.000154918	6.72981e-05	0.0000000E+000	-100.056	0.000252081	0.00119741	0.00122365	78.1115	-7.25558e-08
125.846	190.725	989.978	1008.18	-79.0952	53.3454	-0.0593482	0.000213518	1.27749	1.23177	1	12	0.126453	0.000125427	6.74182e-05	0.0000000E+000	-100.024	0.000187642	0.000973973	0.000991883	79.0952	-3.94492e-08
100.032	218.614	1224.4	1243.76	-79.8766	54.8507	-0.0593517	0.000186578	1.29945	1.2593	1	12	0.126357	0.000101593	6.74808e-05	0.0000000E+000	-100.064	0.00014132	0.000791497	0.000804014	79.8766	9.19489e-08
79.4155	253.43	1516.14	1537.17	-80.5105	56.3822	-0.0593478	0.000213555	1.32183	1.2859	1	12	0.126288	8.21563e-05	6.75558e-05	0.0000000E+000	-100.08	0.000107254	0.000641644	0.000650546	80.5105	-4.97737e-08

File: DE_49_1_30.mpt
EC-Lab ASCII FILE
Nb header lines : 75

Potentio Electrochemical Impedance Spectroscopy

Run on channel : 1 (SN 20909)
User :
CE vs. WE compliance from -10 V to 10 V
Electrode connection : standard
Ewe ctrl range : min = -10.00 V, max = 10.00 V
Safety Limits :
	Do not start on E overload
Acquisition started on : 01/22/2020 09:36:56
Technique started on : 01/22/2020 09:36:57
Saved on :
	File : DE_49_1_30.mpr
	Directory : P:\Chemistry\Data\VMP3\Kyler\DOE\DE_49\30C\
	Host : 10.0.4.99
Device : VMP3 (SN 0183)
Address : USB
EC-Lab for windows v11.33 (software)
Internet server v11.32 (firmware)
Command interpretor v11.33 (firmware)
Electrode material :
Initial state :
Electrolyte :
Comments :
Electrode surface area : 0.001 cm²
Characteristic mass : 0.001 g
Equivalent Weight : 0.000 g/eq.
Density : 0.000 g/cm3
Record Analogic IN 1
Cycle Definition : Charge/Discharge alternance
External device configuration :
   device type : Thermostat
   device name : Other
   Analog OUT :
      mode : E/V
      unit : T/°C
      max : 400.000 at 5.000 V
      min : -100.000 at 0.000 V
      current : 0.000
   Analog IN 1 :
      unit : T/°C
      max : 400.000 at 5.000 V
      min : -100.000 at 0.000 V
Mode                Single sine
E (V)               0.0000
vs.                 Eoc
tE (h:m:s)          0:00:0.0000
record              0
dI                  1.000
unit dI             mA
dt (s)              0.000
fi                  1.000
unit fi             MHz
ff                  1.000
unit ff             Hz
Nd                  20
Points              per decade
spacing             Logarithmic
Va (mV)             128.0
pw                  0.50
Na                  3
corr                0
E range min (V)     -10.000
E range max (V)     10.000
I Range             Auto
Bandwidth           5
nc cycles           0
goto Ns'            0
nr cycles           0
inc. cycle          1

freq/Hz	Re(Z)/Ohm	-Im(Z)/Ohm	|Z|/Ohm	Phase(Z)/deg	time/s	<Ewe>/V	<I>/mA	Cs/µF	Cp/µF	cycle number	I Range	|Ewe|/V	|I|/A	(Q-Qo)/mA.h	Analog OUT/V	Analog IN 1/V	Re(Y)/Ohm-1	Im(Y)/Ohm-1	|Y|/Ohm-1	Phase(Y)/deg	dq/mA.h
1.00002e+06	22.1859	168.811	170.263	-82.5128	1.95148	-0.00455759	0.00316819	0.000942782	0.000926775	1	11	0.00503482	2.95709e-05	7.739e-07	0.0000000E+000	-100.07	0.000765312	0.00582321	0.00587328	82.5128	7.739e-07
707950	38.8476	223.049	226.406	-80.1201	3.73848	-0.003197	0.00313385	0.0010079	0.000978228	1	11	0.0188298	8.31683e-05	2.33297e-06	0.0000000E+000	-100.054	0.000757858	0.00435134	0.00441684	80.1201	5.07993e-07
501206	57.4751	303.674	309.065	-79.2826	5.52649	-0.00211971	0.0032839	0.00104567	0.00100951	1	11	0.0439972	0.000142356	4.01221e-06	0.0000000E+000	-100.086	0.0006017	0.00317912	0.00323556	79.2826	4.93234e-07
354810	81.9337	413.383	421.425	-78.7891	7.31247	-0.00161892	0.00321149	0.0010851	0.00104409	1	11	0.0769256	0.000182537	5.56701e-06	0.0000000E+000	-100.102	0.000461341	0.00232762	0.0023729	78.7891	6.02541e-07
251188	145.188	581.599	599.447	-75.9834	9.26648	-0.00155914	0.0012622	0.00108943	0.00102552	1	12	0.0512423	8.54826e-05	7.17922e-06	0.0000000E+000	-100.046	0.000404045	0.00161853	0.0016682	75.9834	4.03977e-07
177832	192.038	775.196	798.629	-76.0863	11.0555	-0.00144419	0.00126621	0.00115451	0.00108776	1	12	0.094157	0.000117898	8.00992e-06	0.0000000E+000	-100.102	0.000301091	0.00121541	0.00125215	76.0863	1.86022e-07
125909	250.09	1034.5	1064.3	-76.4095	12.7075	-0.00129557	0.00123099	0.00122189	0.00115442	1	12	0.131508	0.000123563	8.45099e-06	0.0000000E+000	-100.054	0.000220785	0.000913277	0.000939585	76.4095	1.69305e-07
89129.3	321.133	1386.25	1422.96	-76.9572	14.4945	-0.00116815	0.0012314	0.00128812	0.00122252	1	12	0.130567	9.17568e-05	9.12843e-06	0.0000000E+000	-100.046	0.000158598	0.000684629	0.000702758	76.9572	3.25981e-07
63093.8	409.349	1866.8	1911.16	-77.6321	16.2815	-0.00109514	0.00125053	0.00135125	0.00128926	1	12	0.129572	6.77976e-05	9.78506e-06	0.0000000E+000	-100.094	0.000112073	0.0005111	0.000523244	77.6321	2.03652e-07
44666.7	522.087	2525.77	2579.16	-78.3212	17.7975	-0.00107995	0.00123538	0.00141073	0.00135292	1	12	0.136033	5.27429e-05	1.02455e-05	0.0000000E+000	-100.094	7.84846e-05	0.000379696	0.000387723	78.3212	1.11857e-07
31621.1	670.353	3432.7	3497.54	-78.9501	19.3125	-0.0010789	0.0012188	0.00146625	0.00141238	1	12	0.131092	3.74811e-05	1.07041e-05	0.0000000E+000	-100.086	5.47996e-05	0.000280614	0.000285915	78.9501	1.24021e-07
22389	1081.3	4717.45	4839.79	-77.0901	20.9935	-0.00104601	0.000990459	0.00150688	0.00143166	1	13	0.131199	2.71085e-05	1.11759e-05	0.0000000E+000	-100.126	4.61629e-05	0.000201398	0.000206621	77.0901	1.25162e-07
15847.7	1376.27	6419.52	6565.4	-77.8996	22.5075	-0.00104045	0.000984048	0.00156441	0.00149567	1	13	0.131633	2.00496e-05	1.16449e-05	0.0000000E+000	-100.086	3.19288e-05	0.00014893	0.000152314	77.8996	1.39244e-07
11217.7	1807.88	8767.68	8952.13	-78.349	23.8855	-0.00104442	0.000998274	0.0016182	0.0015522	1	13	0.118858	1.32771e-05	1.2034e-05	0.0000000E+000	-100.078	2.25588e-05	0.000109404	0.000111705	78.349	1.38812e-07
7944	2471.26	11984.4	12236.5	-78.3486	25.489	-0.00105481	0.00101827	0.00167173	0.00160354	1	13	0.120438	9.84248e-06	1.24832e-05	0.0000000E+000	-100.094	1.65045e-05	8.00386e-05	8.17225e-05	78.3486	1.56165e-07
5621.06	3531.36	16376.1	16752.6	-77.831	27.6053	-0.00100772	0.00102658	0.00172898	0.00165216	1	13	0.126581	7.55595e-06	1.30844e-05	0.0000000E+000	-100.062	1.25829e-05	5.83511e-05	5.96924e-05	77.831	2.64183e-07
3981.27	5250.78	22263.7	22874.5	-76.7296	29.8857	-0.000991016	0.00102369	0.00179556	0.00170095	1	13	0.12339	5.39421e-06	1.37332e-05	0.0000000E+000	-100.062	1.00351e-05	4.25494e-05	4.37168e-05	76.7296	2.12289e-07
2817.3	8057.46	30053.2	31114.6	-74.9916	32.1659	-0.000991501	0.0010198	0.00187973	0.00175368	1	13	0.121744	3.91275e-06	1.43744e-05	0.0000000E+000	-100.062	8.32279e-06	3.10429e-05	3.21392e-05	74.9916	2.10802e-07
1995.64	14443.2	39864.5	42400.3	-70.0841	34.6967	-0.000998158	0.000974033	0.00200056	0.00176842	1	14	0.128526	3.03125e-06	1.50602e-05	0.0000000E+000	-100.062	8.0339e-06	2.21742e-05	2.35847e-05	70.0841	2.04705e-07
1411.84	21303.9	51907.2	56108.9	-67.6857	36.9782	-0.00100722	0.000971571	0.00217174	0.00185866	1	14	0.124619	2.22101e-06	1.56717e-05	0.0000000E+000	-100.054	6.76697e-06	1.64878e-05	1.78225e-05	67.6857	2.028e-07
1000.32	31278.5	65937.4	72980	-64.6219	39.2557	-0.00100728	0.000981323	0.00241296	0.00196972	1	14	0.122491	1.67842e-06	1.62839e-05	0.0000000E+000	-100.046	5.8727e-06	1.23801e-05	1.37024e-05	64.6219	2.04068e-07
707.509	44889.8	81706.3	93225.6	-61.2154	41.5365	-0.00100398	0.000980701	0.00275317	0.00211482	1	14	0.121347	1.30165e-06	1.69014e-05	0.0000000E+000	-100.03	5.16509e-06	9.40124e-06	1.07267e-05	61.2154	2.06402e-07
501.444	61682.4	98481.3	116204	-57.9396	43.8082	-0.000999576	0.000978491	0.00322288	0.00231479	1	14	0.120747	1.0391e-06	1.75164e-05	0.0000000E+000	-100.022	4.56796e-06	7.29314e-06	8.60559e-06	57.9396	2.04677e-07
354.66	81265.1	116884	142358	-55.1905	46.0879	-0.00100069	0.000970923	0.00383932	0.0025882	1	14	0.120415	8.45858e-07	1.81326e-05	0.0000000E+000	-100.094	4.00995e-06	5.76753e-06	7.02454e-06	55.1905	2.05049e-07
251.044	103218	137823	172189	-53.1699	48.3569	-0.00100004	0.000976901	0.0045999	0.002947	1	14	0.120234	6.98268e-07	1.87414e-05	0.0000000E+000	-100.078	3.48132e-06	4.64848e-06	5.80758e-06	53.1699	2.0313e-07
177.781	127348	162593	206528	-51.9307	50.6493	-0.000998196	0.000973982	0.00550597	0.00341252	1	14	0.120138	5.817e-07	1.93634e-05	0.0000000E+000	-100.078	2.98562e-06	3.8119e-06	4.84195e-06	51.9307	2.08684e-07
125.846	154284	194126	247968	-51.5236	52.9244	-0.00100577	0.000972354	0.00651476	0.00399275	1	14	0.120084	4.84273e-07	1.99776e-05	0.0000000E+000	-100.086	2.50916e-06	3.15711e-06	4.03277e-06	51.5236	2.0294e-07
89.116	185714	235307	299765	-51.718	55.1968	-0.000996219	0.000983673	0.00758978	0.00467667	1	14	0.120045	4.00465e-07	2.05916e-05	0.0000000E+000	-100.054	2.06672e-06	2.61862e-06	3.33594e-06	51.718	2.08685e-07
63.0823	223687	285553	362734	-51.9267	57.4928	-0.000991706	0.000980392	0.0088354	0.00547547	1	14	0.120017	3.30868e-07	2.12149e-05	0.0000000E+000	-100.094	1.70006e-06	2.17025e-06	2.75684e-06	51.9267	2.11744e-07
44.6712	269433	351504	442887	-52.5293	59.7572	-0.000996238	0.000970297	0.0101359	0.00638463	1	14	0.120013	2.70978e-07	2.18273e-05	0.0000000E+000	-100.094	1.37361e-06	1.79202e-06	2.25791e-06	52.5293	2.05859e-07
31.6296	331905	433379	545874	-52.5531	61.9944	-0.000998252	0.000958725	0.0116107	0.0073183	1	14	0.120003	2.19836e-07	2.24249e-05	0.0000000E+000	-100.062	1.11386e-06	1.4544e-06	1.83193e-06	52.5531	1.92888e-07
22.3854	409643	538395	676518	-52.734	64.2424	-0.000997282	0.000964887	0.0132055	0.00836369	1	14	0.12	1.7738e-07	2.30243e-05	0.0000000E+000	-100.086	8.95048e-07	1.17637e-06	1.47816e-06	52.734	1.83546e-07
15.8576	519038	657860	837962	-51.7273	66.5699	-0.000991035	0.000969993	0.0152563	0.00940304	1	14	0.120004	1.43209e-07	2.36483e-05	0.0000000E+000	-100.078	7.39181e-07	9.36882e-07	1.19337e-06	51.7273	1.94375e-07
11.2249	657978	795405	1.03228e+06	-50.4016	68.9469	-0.0010026	0.000952142	0.0178259	0.0105836	1	14	0.12	1.16247e-07	2.42782e-05	0.0000000E+000	-100.038	6.1747e-07	7.46436e-07	9.68729e-07	50.4016	1.80887e-07
7.93953	842702	922598	1.24953e+06	-47.5914	71.4907	-0.000990643	0.0009517	0.0217277	0.0118452	1	14	0.119993	9.60302e-08	2.49505e-05	0.0000000E+000	-100.126	5.39732e-07	5.90903e-07	8.00299e-07	47.5914	2.47415e-07
5.6205	1.11867e+06	1.0966e+06	1.56651e+06	-44.4291	73.3557	-0.000990961	0.000957115	0.0258225	0.012654	1	14	0.119995	7.66001e-08	2.5443e-05	0.0000000E+000	-100.062	4.55866e-07	4.4687e-07	6.38363e-07	44.4291	1.81611e-07
3.97785	1.39853e+06	1.2112e+06	1.8501e+06	-40.8943	75.8912	-0.000985487	0.000956106	0.0330337	0.0141578	1	14	0.119994	6.48583e-08	2.61142e-05	0.0000000E+000	-100.102	4.08583e-07	3.53854e-07	5.40511e-07	40.8943	2.46926e-07
2.81836	1.7482e+06	1.32809e+06	2.19546e+06	-37.2234	79.3907	-0.000977179	0.000961344	0.0425204	0.0155597	1	14	0.119995	5.46559e-08	2.70412e-05	0.0000000E+000	-100.118	3.62695e-07	2.75535e-07	4.55486e-07	37.2234	3.43666e-07