Folder: ImpedanceFitter/data (part 4)

File: DE_40_7_60.mpt
EC-Lab ASCII FILE
Nb header lines : 75

Potentio Electrochemical Impedance Spectroscopy

Run on channel : 3 (SN 20921)
User :
CE vs. WE compliance from -10 V to 10 V
Electrode connection : standard
Ewe ctrl range : min = -10.00 V, max = 10.00 V
Safety Limits :
	Do not start on E overload
Acquisition started on : 01/24/2020 09:52:07
Technique started on : 01/24/2020 09:52:08
Saved on :
	File : DE_40_7_60.mpr
	Directory : P:\Chemistry\Data\VMP3\Kyler\DOE\DE_40\2ND 60C\
	Host : 10.0.4.99
Device : VMP3 (SN 0183)
Address : USB
EC-Lab for windows v11.33 (software)
Internet server v11.32 (firmware)
Command interpretor v11.33 (firmware)
Electrode material :
Initial state :
Electrolyte :
Comments :
Electrode surface area : 0.001 cm²
Characteristic mass : 0.001 g
Equivalent Weight : 0.000 g/eq.
Density : 0.000 g/cm3
Record Analogic IN 1
Cycle Definition : Charge/Discharge alternance
External device configuration :
   device type : Thermostat
   device name : Other
   Analog OUT :
      mode : E/V
      unit : T/°C
      max : 400.000 at 5.000 V
      min : -100.000 at 0.000 V
      current : 0.000
   Analog IN 1 :
      unit : T/°C
      max : 400.000 at 5.000 V
      min : -100.000 at 0.000 V
Mode                Single sine
E (V)               0.0000
vs.                 Eoc
tE (h:m:s)          0:00:0.0000
record              0
dI                  1.000
unit dI             mA
dt (s)              0.000
fi                  1.000
unit fi             MHz
ff                  1.000
unit ff             Hz
Nd                  20
Points              per decade
spacing             Logarithmic
Va (mV)             128.0
pw                  0.50
Na                  3
corr                0
E range min (V)     -10.000
E range max (V)     10.000
I Range             Auto
Bandwidth           5
nc cycles           0
goto Ns'            0
nr cycles           0
inc. cycle          1

freq/Hz	Re(Z)/Ohm	-Im(Z)/Ohm	|Z|/Ohm	Phase(Z)/deg	time/s	<Ewe>/V	<I>/mA	Cs/µF	Cp/µF	cycle number	I Range	|Ewe|/V	|I|/A	(Q-Qo)/mA.h	Analog OUT/V	Analog IN 1/V	Re(Y)/Ohm-1	Im(Y)/Ohm-1	|Y|/Ohm-1	Phase(Y)/deg	dq/mA.h
1.00002e+06	5.58862	-21.5439	22.257	75.4576	1.8456	0.00933124	0.261732	-0.00738734	-0.00692157	1	9	2.1369e-05	9.60104e-07	2.75934e-05	0.0000000E+000	-100.088	0.0112817	-0.0434903	0.0449298	-75.4576	2.75934e-05
794333	50.685	9.01966	51.4813	-10.0905	3.61847	0.0100182	0.00190464	0.022214	0.000681881	1	11	0.000914215	1.77582e-05	5.39107e-05	0.0000000E+000	-100.112	0.0191241	0.00340323	0.0194245	10.0905	4.69052e-07
630957	53.4482	7.30632	53.9452	-7.78404	4.81048	0.0105804	0.00190072	0.0345241	0.000633305	1	11	0.00334169	6.19459e-05	5.45459e-05	0.0000000E+000	-100.104	0.0183665	0.00251069	0.0185373	7.78404	3.37288e-07
501206	55.5027	6.36742	55.8668	-6.54452	6.00249	0.0109675	0.00215086	0.0498701	0.000647829	1	11	0.00777582	0.000139185	5.53661e-05	0.0000000E+000	-100.104	0.0177831	0.00204012	0.0178997	6.54452	4.70114e-07
398103	56.89	5.6408	57.1689	-5.66253	7.19449	0.0111018	0.0018765	0.0708734	0.000689994	1	11	0.0144527	0.000252807	5.53669e-05	0.0000000E+000	-100.072	0.0174067	0.00172592	0.017492	5.66253	-6.60169e-08
316230	57.7697	4.94174	57.9807	-4.8893	8.38549	0.0111067	0.00194789	0.101844	0.000739827	1	11	0.0235797	0.000406683	5.67961e-05	0.0000000E+000	-100.096	0.0171844	0.00146999	0.0172471	4.8893	2.1562e-07
251188	58.3291	4.33024	58.4897	-4.24574	9.57748	0.0111094	0.00181407	0.146322	0.000802003	1	11	0.0355146	0.000607195	5.67231e-05	0.0000000E+000	-100.12	0.0170501	0.00126577	0.017097	4.24574	6.66668e-07
199544	58.648	3.84763	58.7741	-3.75354	10.7695	0.0111423	0.00206906	0.207295	0.000888392	1	11	0.0504835	0.000858941	5.87719e-05	0.0000000E+000	-100.096	0.0169778	0.00111384	0.0170143	3.75354	1.34175e-06
158486	58.8389	3.53116	58.9448	-3.43443	11.9615	0.0111779	0.00222991	0.284388	0.0010206	1	11	0.0682276	0.00115748	5.79739e-05	0.0000000E+000	-100.032	0.0169346	0.00101631	0.016965	3.43443	-1.19588e-06
125909	58.9501	3.37753	59.0467	-3.27916	13.1545	0.011159	0.00184616	0.374251	0.00122453	1	11	0.0886188	0.00150082	5.89285e-05	0.0000000E+000	-100.12	0.016908	0.00096874	0.0169357	3.27916	2.15109e-06
100004	59.0209	3.37926	59.1175	-3.27691	14.3455	0.0111606	0.00175726	0.470958	0.00153884	1	11	0.112418	0.0019016	6.12311e-05	0.0000000E+000	-100.064	0.0168878	0.000966916	0.0169155	3.27691	1.32264e-06
79433.3	59.0874	3.53299	59.1929	-3.42179	15.2635	0.0112001	0.0021017	0.56712	0.00202032	1	11	0.140594	0.00237519	6.15787e-05	0.0000000E+000	-100.112	0.0168638	0.00100833	0.0168939	3.42179	1.94258e-06
63093.8	59.1273	3.85551	59.2528	-3.7308	16.4565	0.0113003	0.00220198	0.654261	0.00277011	1	11	0.129734	0.00218949	5.81321e-05	0.0000000E+000	-100.064	0.0168411	0.00109815	0.0168768	3.7308	-2.71157e-06
50122.5	59.1588	4.35989	59.3192	-4.21497	17.6485	0.0113604	0.00222733	0.728303	0.00393434	1	11	0.129568	0.00218425	5.84822e-05	0.0000000E+000	-100.088	0.0168123	0.00123904	0.0168579	4.21497	2.92421e-06
39814.1	59.1959	5.073	59.4129	-4.8982	18.8395	0.0114147	0.00257438	0.787986	0.00574496	1	11	0.129404	0.00217804	5.88065e-05	0.0000000E+000	-100.112	0.0167699	0.00143716	0.0168314	4.8982	2.08363e-06
31621.1	59.2606	6.03257	59.5669	-5.81253	19.8935	0.0113996	0.00202734	0.834335	0.00855726	1	11	0.140676	0.00236165	5.55176e-05	0.0000000E+000	-100.064	0.0167015	0.00170017	0.0167878	5.81253	1.029e-06
25116.9	59.3429	7.27475	59.7872	-6.98892	20.9495	0.0114448	0.00227579	0.871036	0.012896	1	11	0.140312	0.00234685	5.42981e-05	0.0000000E+000	-100.096	0.0166017	0.00203517	0.016726	6.98892	-1.37321e-06
19948.8	59.4632	8.86758	60.1208	-8.48185	22.0045	0.0114552	0.00212426	0.899702	0.0195731	1	11	0.1383	0.00230036	5.36976e-05	0.0000000E+000	-100.104	0.0164513	0.00245333	0.0166332	8.48185	1.93475e-06
15847.7	59.6328	10.8749	60.6163	-10.3351	23.0595	0.0114571	0.00197738	0.923485	0.0297235	1	11	0.136092	0.00224515	4.99283e-05	0.0000000E+000	-100.064	0.0162296	0.00295969	0.0164972	10.3351	-1.39748e-06
12590.9	59.8687	13.3917	61.3482	-12.6086	24.1145	0.0114676	0.00201634	0.943901	0.0449775	1	11	0.133894	0.00218253	5.16799e-05	0.0000000E+000	-100.104	0.0159073	0.00355822	0.0163004	12.6086	2.18543e-06
10002.2	60.1913	16.5316	62.4202	-15.3577	25.1685	0.0114767	0.00208828	0.962516	0.0675131	1	11	0.129294	0.00207134	5.37317e-05	0.0000000E+000	-100.104	0.0154484	0.00424292	0.0160204	15.3577	2.9211e-06
7944	60.6331	20.4307	63.9827	-18.6216	26.177	0.0114994	0.00231269	0.980612	0.0999861	1	11	0.133638	0.00208866	5.50002e-05	0.0000000E+000	-100.08	0.014811	0.00499067	0.0156292	18.6216	2.33268e-06
6307.73	61.2148	25.2516	66.2186	-22.4166	27.3886	0.0115142	0.00228902	0.99921	0.145304	1	11	0.136162	0.00205625	5.49526e-05	0.0000000E+000	-100.096	0.0139604	0.00575877	0.0151015	22.4166	-6.33722e-07
5011.6	61.967	31.18	69.3693	-26.7102	28.8497	0.0115283	0.00247783	1.01852	0.205771	1	11	0.137294	0.00197918	5.80633e-05	0.0000000E+000	-100.08	0.0128773	0.00647949	0.0144156	26.7102	1.95299e-06
3981.27	62.9321	38.4594	73.7535	-31.4301	30.3697	0.0115274	0.00245341	1.03943	0.282641	1	11	0.137457	0.00186373	6.08922e-05	0.0000000E+000	-100.072	0.0115693	0.00707028	0.0135587	31.4301	7.65773e-07
3161.01	64.1527	47.4207	79.7765	-36.4713	31.8897	0.0115216	0.0024275	1.06176	0.375156	1	11	0.137012	0.00171745	6.32459e-05	0.0000000E+000	-100.088	0.0100801	0.00745106	0.012535	36.4713	9.47157e-07
2510.8	65.6484	58.3958	87.8623	-41.6539	33.4097	0.0115343	0.00257288	1.08549	0.479495	1	11	0.136248	0.00155069	6.25532e-05	0.0000000E+000	-100.04	0.00850392	0.00756444	0.0113814	41.6539	-6.865e-07
1995.64	67.4504	71.8223	98.5291	-46.798	34.9297	0.0115191	0.00221501	1.1104	0.590022	1	11	0.135398	0.0013742	6.33763e-05	0.0000000E+000	-100.048	0.00694792	0.00739826	0.0101493	46.798	4.11989e-07
1585.51	69.5667	88.3652	112.463	-51.7879	36.4497	0.0115206	0.00240773	1.13598	0.701316	1	11	0.134593	0.00119678	6.5015e-05	0.0000000E+000	-100.096	0.00550024	0.00698654	0.00889181	51.7879	8.94604e-08
1258.79	72.0093	108.841	130.505	-56.5113	37.97	0.0115223	0.00234211	1.16165	0.807981	1	11	0.133902	0.00102603	6.62816e-05	0.0000000E+000	-100.04	0.00422797	0.0063905	0.00766252	56.5113	1.24079e-06
1000.32	74.7929	134.071	153.522	-60.8445	39.4877	0.0115177	0.00220493	1.18672	0.905056	1	11	0.133351	0.000868614	6.62225e-05	0.0000000E+000	-100.08	0.00317337	0.00568845	0.00651373	60.8445	8.76521e-08
794.238	77.9646	165.52	182.963	-64.7782	41.0059	0.0115158	0.00231508	1.21065	0.990821	1	11	0.13294	0.000726599	6.69175e-05	0.0000000E+000	-100.08	0.00232902	0.00494454	0.0054656	64.7782	4.74362e-07
631.01	81.5765	204.543	220.21	-68.2567	42.5264	0.0115228	0.00239839	1.2331	1.06388	1	11	0.132643	0.000602347	6.8103e-05	0.0000000E+000	-100.088	0.00168225	0.00421803	0.00454112	68.2567	6.16166e-07
501.444	85.7837	253.118	267.259	-71.278	44.0402	0.0115247	0.00234844	1.25394	1.12475	1	11	0.132435	0.000495531	6.92494e-05	0.0000000E+000	-100.096	0.00120099	0.00354371	0.00374169	71.278	1.75227e-07
398.089	90.7232	314.047	326.888	-73.8868	45.8097	0.0115138	0.00017305	1.27305	1.17499	1	12	0.134845	0.00041251	6.98449e-05	0.0000000E+000	-100.088	0.000849023	0.00293897	0.00305915	73.8868	2.67197e-07
316.316	96.665	389.805	401.611	-76.0726	47.3269	0.0115152	0.000153883	1.29078	1.216	1	12	0.133858	0.000333303	6.99865e-05	0.0000000E+000	-100.056	0.000599318	0.00241677	0.00248997	76.0726	2.29251e-07
251.044	103.995	484.814	495.842	-77.8932	48.8389	0.0115178	0.000164135	1.30766	1.25014	1	12	0.133206	0.000268645	6.96361e-05	0.0000000E+000	-100.096	0.000422985	0.00197191	0.00201677	77.8932	-1.38361e-07
199.553	113.044	602.554	613.066	-79.3744	50.3632	0.0115178	0.000175637	1.32363	1.27862	1	12	0.132784	0.00021659	6.9827e-05	0.0000000E+000	-100.096	0.000300767	0.00160318	0.00163114	79.3744	2.69028e-07
158.428	124.502	750.091	760.353	-80.5758	51.8977	0.0115191	0.000158707	1.33929	1.30338	1	12	0.132506	0.00017427	6.99666e-05	0.0000000E+000	-100.064	0.000215351	0.00129743	0.00131518	80.5758	-1.00873e-07
125.846	139.08	933.572	943.875	-81.5266	53.4064	0.0115219	0.000158091	1.35467	1.32526	1	12	0.132332	0.000140201	7.00695e-05	0.0000000E+000	-100.064	0.000156112	0.0010479	0.00105946	81.5266	-5.90171e-08
100.032	157.284	1161.37	1171.97	-82.2874	54.9117	0.0115122	0.000166908	1.36997	1.34529	1	12	0.132219	0.000112818	7.01153e-05	0.0000000E+000	-100.072	0.000114511	0.000845542	0.000853261	82.2874	9.00493e-08
79.4155	181.086	1446.4	1457.69	-82.8638	56.4422	0.0115165	0.000151844	1.38556	1.36418	1	12	0.132151	9.06578e-05	7.02017e-05	0.0000000E+000	-100.08	8.52227e-05	0.000680703	0.000686017	82.8638	-3.72515e-08

File: DE_40_8_60.mpt
EC-Lab ASCII FILE
Nb header lines : 75

Potentio Electrochemical Impedance Spectroscopy

Run on channel : 4 (SN 4192)
User :
CE vs. WE compliance from -10 V to 10 V
Electrode connection : standard
Ewe ctrl range : min = -10.00 V, max = 10.00 V
Safety Limits :
	Do not start on E overload
Acquisition started on : 01/24/2020 09:51:56
Technique started on : 01/24/2020 09:51:57
Saved on :
	File : DE_40_8_60.mpr
	Directory : P:\Chemistry\Data\VMP3\Kyler\DOE\DE_40\2ND 60C\
	Host : 10.0.4.99
Device : VMP3 (SN 0183)
Address : USB
EC-Lab for windows v11.33 (software)
Internet server v11.32 (firmware)
Command interpretor v11.33 (firmware)
Electrode material :
Initial state :
Electrolyte :
Comments :
Electrode surface area : 0.001 cm²
Characteristic mass : 0.001 g
Equivalent Weight : 0.000 g/eq.
Density : 0.000 g/cm3
Record Analogic IN 1
Cycle Definition : Charge/Discharge alternance
External device configuration :
   device type : Thermostat
   device name : Other
   Analog OUT :
      mode : E/V
      unit : T/°C
      max : 400.000 at 5.000 V
      min : -100.000 at 0.000 V
      current : 0.000
   Analog IN 1 :
      unit : T/°C
      max : 400.000 at 5.000 V
      min : -100.000 at 0.000 V
Mode                Single sine
E (V)               0.0000
vs.                 Eoc
tE (h:m:s)          0:00:0.0000
record              0
dI                  1.000
unit dI             mA
dt (s)              0.000
fi                  1.000
unit fi             MHz
ff                  1.000
unit ff             Hz
Nd                  20
Points              per decade
spacing             Logarithmic
Va (mV)             128.0
pw                  0.50
Na                  3
corr                0
E range min (V)     -10.000
E range max (V)     10.000
I Range             Auto
Bandwidth           5
nc cycles           0
goto Ns'            0
nr cycles           0
inc. cycle          1

freq/Hz	Re(Z)/Ohm	-Im(Z)/Ohm	|Z|/Ohm	Phase(Z)/deg	time/s	<Ewe>/V	<I>/mA	Cs/µF	Cp/µF	cycle number	I Range	|Ewe|/V	|I|/A	(Q-Qo)/mA.h	Analog OUT/V	Analog IN 1/V	Re(Y)/Ohm-1	Im(Y)/Ohm-1	|Y|/Ohm-1	Phase(Y)/deg	dq/mA.h
1.00002e+06	69.285	28.3205	74.8496	-22.2324	1.64647	0.00117407	0.00193753	0.00561968	0.000804514	1	11	0.000578499	7.72883e-06	4.1959e-07	0.0000000E+000	-100.097	0.0123669	0.00505501	0.0133601	22.2324	4.1959e-07
794333	75.4006	24.8725	79.3971	-18.2562	2.83849	0.00161295	0.00266506	0.00805562	0.000790547	1	11	0.000557124	7.01693e-06	1.31087e-06	0.0000000E+000	-100.137	0.011961	0.00394557	0.0125949	18.2562	5.57779e-07
630957	80.1202	21.1219	82.8576	-14.7688	4.80949	0.00193367	0.00300975	0.0119423	0.00077605	1	11	0.00119074	1.43709e-05	5.76266e-05	0.0000000E+000	-100.073	0.0116702	0.00307659	0.0120689	14.7688	2.88844e-05
501206	84.4493	18.5557	86.4638	-12.3924	6.00249	0.00206549	0.00354912	0.017113	0.000788155	1	11	0.00585472	6.7713e-05	5.85137e-05	0.0000000E+000	-100.145	0.0112961	0.00248204	0.0115655	12.3924	4.92684e-07
398103	87.0041	15.9934	88.4619	-10.416	7.19348	0.00219547	0.00354112	0.0249968	0.000817056	1	11	0.0139533	0.000157733	5.98599e-05	0.0000000E+000	-100.097	0.011118	0.00204375	0.0113043	10.416	7.00829e-07
316230	88.9907	13.6673	90.0341	-8.73131	8.38349	0.00224498	0.00357723	0.0368244	0.000848564	1	11	0.0257195	0.000285664	6.03368e-05	0.0000000E+000	-100.089	0.0109782	0.00168604	0.0111069	8.73131	3.21779e-07
251188	90.2825	11.5918	91.0237	-7.31642	9.57549	0.00225509	0.00357127	0.0546604	0.000886467	1	11	0.041337	0.000454135	6.1065e-05	0.0000000E+000	-100.153	0.0108967	0.00139907	0.0109862	7.31642	-2.78003e-07
199544	90.9716	9.89741	91.5085	-6.20917	10.7685	0.00224582	0.00345589	0.0805863	0.000942717	1	11	0.0608154	0.000664588	6.32258e-05	0.0000000E+000	-100.105	0.0108638	0.00118195	0.010928	6.20917	1.17555e-06
158486	91.5244	8.63056	91.9304	-5.38694	11.9595	0.00220908	0.00319998	0.116356	0.00102553	1	11	0.0838766	0.000912393	6.65011e-05	0.0000000E+000	-100.056	0.0108297	0.00102122	0.0108778	5.38694	1.10656e-06
125909	91.8423	7.75837	92.1694	-4.82859	13.1525	0.00222321	0.00337177	0.162926	0.00115441	1	11	0.1101	0.00119454	7.04348e-05	0.0000000E+000	-100.089	0.0108111	0.000913265	0.0108496	4.82859	1.4613e-06
100004	92.0498	7.24768	92.3347	-4.50198	14.0715	0.00224873	0.0034507	0.219586	0.00135292	1	11	0.140297	0.00151944	7.2441e-05	0.0000000E+000	-100.145	0.0107968	0.000850099	0.0108302	4.50198	4.72471e-07
79433.3	92.2264	7.06714	92.4967	-4.38191	15.2635	0.0022736	0.00366231	0.283514	0.00165504	1	11	0.129931	0.00140471	7.92122e-05	0.0000000E+000	-100.129	0.0107796	0.00082602	0.0108112	4.38191	3.66381e-06
63093.8	92.3067	7.22761	92.5892	-4.47712	16.4545	0.00228326	0.00386239	0.34901	0.0021267	1	11	0.12961	0.00139984	7.93608e-05	0.0000000E+000	-100.137	0.0107674	0.00084309	0.0108004	4.47712	-7.80659e-07
50122.5	92.3748	7.72219	92.697	-4.7786	17.6465	0.00228192	0.00363384	0.411195	0.00285362	1	11	0.129496	0.00139699	8.25559e-05	0.0000000E+000	-100.097	0.0107503	0.000898688	0.0107878	4.7786	2.17636e-06
39814.1	92.4569	8.58899	92.8549	-5.30739	18.7015	0.00227953	0.00352776	0.465416	0.00398213	1	11	0.140046	0.00150822	8.28082e-05	0.0000000E+000	-100.048	0.0107233	0.000996167	0.0107695	5.30739	-3.75152e-08
31621.1	92.57	9.88703	93.0965	-6.09642	19.7555	0.00232038	0.00384173	0.509069	0.00574172	1	11	0.139525	0.00149871	8.43808e-05	0.0000000E+000	-100.089	0.0106808	0.00114077	0.0107415	6.09642	9.09768e-07
25116.9	92.7335	11.653	93.4628	-7.16233	20.8105	0.00233454	0.00385011	0.54377	0.00845308	1	11	0.137374	0.00146983	8.75782e-05	0.0000000E+000	-100.137	0.010616	0.00133402	0.0106994	7.16233	1.6328e-06
19948.8	92.9881	13.965	94.0308	-8.54086	21.8645	0.00231555	0.00377975	0.5713	0.0126009	1	11	0.135203	0.00143786	8.82384e-05	0.0000000E+000	-100.097	0.0105169	0.00157942	0.0106348	8.54086	6.31651e-07
15847.7	93.1885	16.9582	94.7189	-10.3137	22.9195	0.00232918	0.00393292	0.59221	0.0189828	1	11	0.129649	0.00136878	8.72573e-05	0.0000000E+000	-100.097	0.010387	0.00189019	0.0105576	10.3137	-1.17009e-06
12590.9	93.5758	20.7299	95.8444	-12.4911	23.8375	0.00233607	0.00399453	0.609768	0.0285251	1	11	0.13561	0.0014149	8.85241e-05	0.0000000E+000	-100.056	0.0101866	0.00225665	0.0104336	12.4911	-2.93659e-07
10002.2	94.1239	25.4681	97.5086	-15.1406	24.7565	0.00232213	0.00382163	0.62478	0.042622	1	11	0.139636	0.00143204	9.14511e-05	0.0000000E+000	-99.9843	0.00989952	0.00267862	0.0102555	15.1406	1.73688e-06
7944	94.8278	31.361	99.8791	-18.2998	25.907	0.00239109	0.00435838	0.638839	0.0629828	1	11	0.130378	0.00130536	9.11973e-05	0.0000000E+000	-100.145	0.00950576	0.0031437	0.0100121	18.2998	3.21045e-07
6307.73	95.8364	38.6844	103.349	-21.9815	27.1186	0.00240455	0.00414528	0.652245	0.0913833	1	11	0.131656	0.00127389	9.31103e-05	0.0000000E+000	-100.073	0.00897252	0.00362176	0.00967592	21.9815	3.38093e-07
5011.6	97.1376	47.6785	108.208	-26.1434	28.5797	0.00243257	0.00439504	0.666072	0.129315	1	11	0.132179	0.00122153	9.56642e-05	0.0000000E+000	-100.073	0.00829601	0.00407197	0.00924147	26.1434	1.34947e-06
3981.27	98.8907	58.7262	115.014	-30.704	30.0997	0.00240298	0.00418342	0.680716	0.177473	1	11	0.132221	0.00114961	9.69531e-05	0.0000000E+000	-100.073	0.00747578	0.00443949	0.00869462	30.704	-9.44299e-08
3161.01	101.158	72.2542	124.312	-35.5373	31.6187	0.00241297	0.00432655	0.696836	0.235413	1	11	0.131932	0.0010613	9.92816e-05	0.0000000E+000	-100.089	0.00654592	0.00467558	0.00804426	35.5373	1.13368e-06
2510.8	104.072	88.7381	136.768	-40.453	33.1377	0.00241717	0.0042253	0.714327	0.300712	1	11	0.131489	0.000961401	0.000102054	0.0000000E+000	-100.113	0.00556373	0.00474398	0.00731167	40.453	1.44774e-06
1995.64	107.787	108.813	153.161	-45.2712	34.6567	0.00241558	0.00410897	0.732923	0.369931	1	11	0.131003	0.000855325	0.000103588	0.0000000E+000	-100.04	0.00459484	0.00463855	0.00652907	45.2712	1.33646e-06
1585.51	112.417	133.361	174.422	-49.8706	36.1757	0.00241325	0.00405705	0.752701	0.440029	1	11	0.130538	0.000748403	0.000104478	0.0000000E+000	-100.121	0.00369516	0.00438358	0.00573324	49.8706	7.00673e-07
1258.79	118.013	163.285	201.468	-54.1427	37.695	0.0024159	0.00433417	0.774318	0.50863	1	11	0.130148	0.000646001	0.00010716	0.0000000E+000	-100.064	0.0029075	0.00402287	0.00496357	54.1427	1.22273e-06
1000.32	124.671	199.565	235.306	-58.0063	39.2127	0.00240867	0.00414191	0.797255	0.573453	1	11	0.12984	0.000551794	0.000108254	0.0000000E+000	-100.056	0.00225165	0.00360427	0.00424978	58.0063	5.95308e-07
794.238	132.726	244.129	277.876	-61.4683	40.7309	0.00240884	0.0041514	0.820825	0.633558	1	11	0.129605	0.000466414	0.000109748	0.0000000E+000	-100.089	0.00171891	0.00316167	0.00359873	61.4683	8.30985e-07
631.01	142.399	298.948	331.131	-64.53	42.5034	0.00238497	0.00046606	0.8437	0.687671	1	12	0.132973	0.000401573	0.000111069	0.0000000E+000	-100.073	0.0012987	0.00272645	0.00301995	64.53	3.8998e-07
501.444	153.783	365.809	396.819	-67.1985	44.0172	0.00238192	0.000470213	0.867647	0.737337	1	12	0.131686	0.000331854	0.000111406	0.0000000E+000	-100.056	0.000976615	0.0023231	0.00252004	67.1985	-9.52581e-08
398.089	167.354	448.417	478.628	-69.5339	45.5367	0.00239601	0.000486473	0.891574	0.782573	1	12	0.130803	0.000273287	0.000111826	0.0000000E+000	-100.113	0.000730531	0.00195742	0.0020893	69.5339	5.05707e-08
316.316	183.533	549.869	579.689	-71.5423	47.0539	0.00238932	0.00048893	0.91504	0.823318	1	12	0.130214	0.000224628	0.000111987	0.0000000E+000	-100.089	0.000546163	0.00163632	0.00172506	71.5423	-9.75426e-08
251.044	202.904	675.328	705.151	-73.277	48.5659	0.00238965	0.000481087	0.93876	0.861034	1	12	0.129819	0.0001841	0.000112173	0.0000000E+000	-100.105	0.000408062	0.00135816	0.00141814	73.277	-3.63611e-08