Folder: ImpedanceFitter/data (part 10)

File: DE_49_5_30.mpt
EC-Lab ASCII FILE
Nb header lines : 75

Potentio Electrochemical Impedance Spectroscopy

Run on channel : 1 (SN 20909)
User :
CE vs. WE compliance from -10 V to 10 V
Electrode connection : standard
Ewe ctrl range : min = -10.00 V, max = 10.00 V
Safety Limits :
	Do not start on E overload
Acquisition started on : 01/22/2020 09:39:16
Technique started on : 01/22/2020 09:39:17
Saved on :
	File : DE_49_5_30.mpr
	Directory : P:\Chemistry\Data\VMP3\Kyler\DOE\DE_49\30C\
	Host : 10.0.4.99
Device : VMP3 (SN 0183)
Address : USB
EC-Lab for windows v11.33 (software)
Internet server v11.32 (firmware)
Command interpretor v11.33 (firmware)
Electrode material :
Initial state :
Electrolyte :
Comments :
Electrode surface area : 0.001 cm²
Characteristic mass : 0.001 g
Equivalent Weight : 0.000 g/eq.
Density : 0.000 g/cm3
Record Analogic IN 1
Cycle Definition : Charge/Discharge alternance
External device configuration :
   device type : Thermostat
   device name : Other
   Analog OUT :
      mode : E/V
      unit : T/°C
      max : 400.000 at 5.000 V
      min : -100.000 at 0.000 V
      current : 0.000
   Analog IN 1 :
      unit : T/°C
      max : 400.000 at 5.000 V
      min : -100.000 at 0.000 V
Mode                Single sine
E (V)               0.0000
vs.                 Eoc
tE (h:m:s)          0:00:0.0000
record              0
dI                  1.000
unit dI             mA
dt (s)              0.000
fi                  1.000
unit fi             MHz
ff                  1.000
unit ff             Hz
Nd                  20
Points              per decade
spacing             Logarithmic
Va (mV)             128.0
pw                  0.50
Na                  3
corr                0
E range min (V)     -10.000
E range max (V)     10.000
I Range             Auto
Bandwidth           5
nc cycles           0
goto Ns'            0
nr cycles           0
inc. cycle          1

freq/Hz	Re(Z)/Ohm	-Im(Z)/Ohm	|Z|/Ohm	Phase(Z)/deg	time/s	<Ewe>/V	<I>/mA	Cs/µF	Cp/µF	cycle number	I Range	|Ewe|/V	|I|/A	(Q-Qo)/mA.h	Analog OUT/V	Analog IN 1/V	Re(Y)/Ohm-1	Im(Y)/Ohm-1	|Y|/Ohm-1	Phase(Y)/deg	dq/mA.h
1.00002e+06	26.6662	105.261	108.586	-75.7841	1.95248	-0.00426258	0.00296737	0.00151197	0.00142079	1	11	0.00319528	2.94262e-05	6.50604e-07	0.0000000E+000	-100.086	0.00226158	0.00892726	0.00920927	75.7841	6.50604e-07
794333	41.3445	119.838	126.769	-70.9654	3.14347	-0.00327981	0.00303064	0.00167195	0.00149411	1	11	0.00836251	6.59663e-05	1.62964e-06	0.0000000E+000	-100.086	0.0025727	0.00745702	0.00788834	70.9654	3.91955e-07
630957	58.0752	139.889	151.465	-67.4542	4.33548	-0.00247649	0.00313217	0.00180317	0.00153808	1	11	0.0184257	0.000121649	2.705e-06	0.0000000E+000	-100.094	0.00253142	0.00609759	0.00660217	67.4542	6.33949e-07
501206	78.1922	163.75	181.461	-64.4751	5.52749	-0.00183158	0.00332627	0.0019392	0.00157913	1	11	0.0336749	0.000185577	3.71666e-06	0.0000000E+000	-100.046	0.00237464	0.00497296	0.00551083	64.4751	7.91737e-07
398103	103.495	189.591	216	-61.3706	6.71848	-0.00143878	0.00325013	0.00210866	0.00162456	1	11	0.0531425	0.00024603	4.67168e-06	0.0000000E+000	-100.07	0.00221825	0.0040636	0.00462963	61.3706	8.15685e-07
316230	134.743	216.179	254.733	-58.0649	7.90849	-0.00123075	0.00335147	0.00232811	0.00167672	1	11	0.0764906	0.000300277	6.32106e-06	0.0000000E+000	-100.062	0.00207652	0.00333152	0.00392568	58.0649	7.16527e-07
251188	172.223	241.184	296.362	-54.4703	9.09948	-0.00119746	0.00324416	0.00262708	0.0017399	1	11	0.103981	0.000350858	7.41847e-06	0.0000000E+000	-100.094	0.00196086	0.00274602	0.00337425	54.4703	5.05498e-07
199544	215.077	263.147	339.86	-50.74	10.0195	-0.00110564	0.00329026	0.00303098	0.00181711	1	11	0.135879	0.000399807	8.13686e-06	0.0000000E+000	-100.07	0.00186206	0.00227824	0.00294239	50.74	5.96296e-07
158486	262.031	281.56	384.625	-47.0574	11.2115	-0.000949597	0.00327346	0.00356663	0.00191128	1	11	0.130058	0.000338143	9.36929e-06	0.0000000E+000	-100.094	0.00177124	0.00190325	0.00259994	47.0574	1.22698e-06
125909	311.784	295.902	429.846	-43.5029	12.4055	-0.000867659	0.00331731	0.00427183	0.00202435	1	11	0.129682	0.000301693	1.09505e-05	0.0000000E+000	-100.038	0.00168744	0.00160149	0.00232642	43.5029	7.6381e-07
100004	362.853	305.967	474.634	-40.1384	13.5975	-0.000806009	0.00334027	0.00520152	0.00216152	1	11	0.129608	0.000273069	1.16599e-05	0.0000000E+000	-100.078	0.00161069	0.00135817	0.00210688	40.1384	4.30725e-07
79433.3	422.104	308.701	522.942	-36.1795	14.9555	-0.000972683	0.00112075	0.00649052	0.00226177	1	12	0.121572	0.000232478	1.26325e-05	0.0000000E+000	-100.094	0.00154352	0.00112884	0.00191226	36.1795	2.52264e-08
63093.8	472.023	312.718	566.214	-33.5247	16.0115	-0.00092597	0.00110957	0.00806641	0.00246051	1	12	0.131306	0.000231902	1.29589e-05	0.0000000E+000	-100.054	0.00147232	0.000975421	0.00176612	33.5247	3.35293e-07
50122.5	521.336	315.343	609.289	-31.1687	17.2025	-0.000863127	0.0011259	0.0100694	0.00269727	1	12	0.130006	0.000213374	1.32522e-05	0.0000000E+000	-100.054	0.00140434	0.000849449	0.00164126	31.1687	1.74944e-07
39814.1	570.085	316.89	652.239	-29.0681	18.3945	-0.000821487	0.00112838	0.0126147	0.00297768	1	12	0.129594	0.00019869	1.33852e-05	0.0000000E+000	-100.102	0.00134007	0.000744894	0.00153318	29.0681	1.2114e-07
31621.1	618.722	317.825	695.579	-27.1886	19.5855	-0.000803455	0.00114161	0.0158363	0.00330626	1	12	0.129384	0.000186009	1.38972e-05	0.0000000E+000	-100.086	0.0012788	0.000656893	0.00143765	27.1886	-9.85962e-08
25116.9	667.246	318.187	739.229	-25.4949	20.6415	-0.000785795	0.00113506	0.0199146	0.00368959	1	12	0.130061	0.000175942	1.39675e-05	0.0000000E+000	-100.038	0.00122103	0.00058227	0.00135276	25.4949	4.51602e-08
19948.8	715.969	317.756	783.314	-23.9323	21.6965	-0.000776621	0.00112707	0.0251078	0.00413167	1	12	0.129521	0.00016535	1.38477e-05	0.0000000E+000	-100.094	0.00116687	0.000517872	0.00127663	23.9323	-1.69828e-07
15847.7	764.626	316.241	827.442	-22.4694	22.6155	-0.00077373	0.00115266	0.0317568	0.0046387	1	12	0.13737	0.000166018	1.39731e-05	0.0000000E+000	-100.102	0.0011168	0.000461894	0.00120854	22.4694	3.95729e-08
12590.9	813.444	313.911	871.912	-21.1018	23.6705	-0.000762803	0.00114915	0.0402676	0.00521943	1	12	0.12941	0.000148421	1.4135e-05	0.0000000E+000	-100.038	0.00107	0.000412915	0.0011469	21.1018	-7.67378e-08
10002.2	861.726	310.123	915.832	-19.7931	24.5895	-0.000768192	0.00115031	0.0513085	0.00588336	1	12	0.131496	0.00014358	1.45604e-05	0.0000000E+000	-100.094	0.0010274	0.000369745	0.0010919	19.7931	2.48226e-07
7944	909.411	304.632	959.077	-18.5197	25.598	-0.000722897	0.00120848	0.0657666	0.00663513	1	12	0.132398	0.000138047	1.49429e-05	0.0000000E+000	-100.054	0.000988674	0.000331183	0.00104267	18.5197	2.49197e-07
6307.73	955.606	297.778	1000.93	-17.3076	26.8095	-0.000706058	0.00120846	0.0847334	0.00749953	1	12	0.132665	0.000132542	1.53007e-05	0.0000000E+000	-100.126	0.000953837	0.000297227	0.000999074	17.3076	1.18569e-07
5011.6	999.968	289.53	1041.04	-16.1478	28.2707	-0.000683979	0.0012393	0.109686	0.00848404	1	12	0.132624	0.000127396	1.58902e-05	0.0000000E+000	-100.094	0.000922681	0.000267153	0.000960578	16.1478	2.80077e-07
3981.27	1041.79	280.492	1078.89	-15.069	29.7907	-0.000689294	0.00120193	0.142521	0.0096331	1	12	0.132467	0.000122781	1.63367e-05	0.0000000E+000	-100.078	0.000895009	0.000240973	0.000926881	15.069	1.66443e-07
[...]
794.238	1236.06	275.431	1266.38	-12.5619	40.4279	-0.000690468	0.00119211	0.72754	0.0344155	1	12	0.131659	0.000103965	2.00089e-05	0.0000000E+000	-100.086	0.000770749	0.000171745	0.000789652	12.5619	1.8146e-07
631.01	1254.16	300.129	1289.58	-13.4581	41.9484	-0.000687168	0.00120464	0.84038	0.0455196	1	12	0.131618	0.000102063	2.06948e-05	0.0000000E+000	-100.078	0.000754155	0.000180474	0.000775449	13.4581	3.32202e-07
501.444	1273.53	335.535	1316.99	-14.7602	43.4622	-0.000682431	0.00122608	0.945933	0.0614005	1	12	0.131588	9.99161e-05	2.12661e-05	0.0000000E+000	-100.11	0.000734252	0.000193453	0.000759309	14.7602	2.94264e-07
398.089	1294.39	383.333	1349.96	-16.4966	44.9817	-0.000682711	0.00121682	1.04295	0.0840957	1	12	0.131564	9.74575e-05	2.16944e-05	0.0000000E+000	-100.046	0.00071027	0.000210346	0.000740762	16.4966	2.00818e-07
316.316	1318.68	445.405	1391.87	-18.6632	46.4989	-0.000677415	0.00122289	1.12965	0.115679	1	12	0.131538	9.45045e-05	2.21807e-05	0.0000000E+000	-100.11	0.000680678	0.000229909	0.000718457	18.6632	2.08538e-07
251.044	1348.02	523.725	1446.18	-21.2319	48.0109	-0.000680921	0.00119734	1.21051	0.158755	1	12	0.131524	9.09458e-05	2.28227e-05	0.0000000E+000	-100.078	0.000644541	0.000250414	0.000691476	21.2319	3.13921e-07
199.553	1384.28	620.995	1517.19	-24.1613	49.5342	-0.000685061	0.00120654	1.28432	0.215164	1	12	0.131504	8.66764e-05	2.33057e-05	0.0000000E+000	-100.062	0.000601373	0.000269779	0.000659113	24.1613	1.83173e-07
158.428	1430.51	740.391	1610.76	-27.3648	51.0687	-0.000681219	0.00120884	1.35683	0.286675	1	12	0.131482	8.16273e-05	2.38126e-05	0.0000000E+000	-100.038	0.000551355	0.000285366	0.000620827	27.3648	2.75664e-07
125.846	1489.64	885.163	1732.78	-30.7194	52.5774	-0.000684669	0.00119553	1.42876	0.372836	1	12	0.131464	7.58689e-05	2.43034e-05	0.0000000E+000	-100.062	0.000496127	0.000294806	0.000577107	30.7194	2.30319e-07
100.032	1565.8	1058.29	1889.9	-34.0539	54.0827	-0.000677825	0.00121111	1.50341	0.471422	1	12	0.131446	6.9552e-05	2.47207e-05	0.0000000E+000	-100.054	0.00043839	0.000296298	0.00052913	34.0539	2.10761e-07
79.4155	1665.13	1264.77	2091.01	-37.2191	55.6142	-0.000682469	0.00120897	1.58453	0.579719	1	12	0.131435	6.28572e-05	2.52333e-05	0.0000000E+000	-100.086	0.000380835	0.000289269	0.000478239	37.2191	2.68735e-07
63.0823	1795.78	1506.26	2343.86	-39.9891	57.1458	-0.000681965	0.0011892	1.67499	0.691753	1	12	0.131421	5.60705e-05	2.57189e-05	0.0000000E+000	-100.102	0.000326883	0.000274182	0.000426647	39.9891	2.29271e-07
50.1444	1965.6	1787.66	2656.94	-42.2856	58.6472	-0.000679149	0.00120122	1.77547	0.803747	1	12	0.131412	4.946e-05	2.62714e-05	0.0000000E+000	-100.086	0.000278441	0.000253234	0.000376373	42.2856	2.75173e-07
39.8089	2187.74	2105.68	3036.47	-43.9051	60.4257	-0.000685005	0.00101323	1.89866	0.913053	1	13	0.13159	4.33364e-05	2.6798e-05	0.0000000E+000	-100.062	0.000237279	0.000228379	0.00032933	43.9051	2.67235e-07
31.6296	2474.44	2464.27	3492.2	-44.882	61.9005	-0.000684893	0.00102045	2.04192	1.01676	1	13	0.13153	3.7664e-05	2.71109e-05	0.0000000E+000	-100.046	0.000202898	0.000202064	0.000286352	44.882	1.64828e-07
25.1044	2842.41	2851.73	4026.37	-45.0938	63.4619	-0.00069362	0.00104168	2.22311	1.11519	1	13	0.131479	3.26545e-05	2.75995e-05	0.0000000E+000	-100.094	0.000175331	0.000175906	0.000248362	45.0938	2.35934e-07
19.9553	3302.02	3249.96	4633.1	-44.5447	64.9102	-0.000688604	0.00102646	2.45406	1.20753	1	13	0.131452	2.83723e-05	2.80587e-05	0.0000000E+000	-100.078	0.000153829	0.000151403	0.000215838	44.5447	2.6838e-07

File: DE_49_6_30.mpt
EC-Lab ASCII FILE
Nb header lines : 75

Potentio Electrochemical Impedance Spectroscopy

Run on channel : 2 (SN 20919)
User :
CE vs. WE compliance from -10 V to 10 V
Electrode connection : standard
Ewe ctrl range : min = -10.00 V, max = 10.00 V
Safety Limits :
	Do not start on E overload
Acquisition started on : 01/22/2020 09:36:40
Technique started on : 01/22/2020 09:36:41
Saved on :
	File : DE_49_6_30.mpr
	Directory : P:\Chemistry\Data\VMP3\Kyler\DOE\DE_49\30C\
	Host : 10.0.4.99
Device : VMP3 (SN 0183)
Address : USB
EC-Lab for windows v11.33 (software)
Internet server v11.32 (firmware)
Command interpretor v11.33 (firmware)
Electrode material :
Initial state :
Electrolyte :
Comments :
Electrode surface area : 0.001 cm²
Characteristic mass : 0.001 g
Equivalent Weight : 0.000 g/eq.
Density : 0.000 g/cm3
Record Analogic IN 1
Cycle Definition : Charge/Discharge alternance
External device configuration :
   device type : Thermostat
   device name : Other
   Analog OUT :
      mode : E/V
      unit : T/°C
      max : 400.000 at 5.000 V
      min : -100.000 at 0.000 V
      current : 0.000
   Analog IN 1 :
      unit : T/°C
      max : 400.000 at 5.000 V
      min : -100.000 at 0.000 V
Mode                Single sine
E (V)               0.0000
vs.                 Eoc
tE (h:m:s)          0:00:0.0000
record              0
dI                  1.000
unit dI             mA
dt (s)              0.000
fi                  1.000
unit fi             MHz
ff                  1.000
unit ff             Hz
Nd                  20
Points              per decade
spacing             Logarithmic
Va (mV)             128.0
pw                  0.50
Na                  3
corr                0
E range min (V)     -10.000
E range max (V)     10.000
I Range             Auto
Bandwidth           5
nc cycles           0
goto Ns'            0
nr cycles           0
inc. cycle          1

freq/Hz	Re(Z)/Ohm	-Im(Z)/Ohm	|Z|/Ohm	Phase(Z)/deg	time/s	<Ewe>/V	<I>/mA	Cs/µF	Cp/µF	cycle number	I Range	|Ewe|/V	|I|/A	(Q-Qo)/mA.h	Analog OUT/V	Analog IN 1/V	Re(Y)/Ohm-1	Im(Y)/Ohm-1	|Y|/Ohm-1	Phase(Y)/deg	dq/mA.h
1.00002e+06	63.4226	157.911	170.171	-68.1178	1.95149	-0.00336445	0.00201652	0.00100786	0.000867864	1	11	0.00264826	1.55623e-05	1.57231e-06	0.0000000E+000	-100.094	0.00219014	0.00545305	0.00587644	68.1178	1.57231e-06
707950	93.5995	201.081	221.798	-65.0389	3.74048	-0.00231305	0.00209959	0.00111801	0.000918909	1	11	0.0131089	5.91027e-05	2.46977e-06	0.0000000E+000	-100.054	0.00190264	0.00408747	0.0045086	65.0389	2.43782e-07
501206	138.921	256.925	292.078	-61.5996	5.52747	-0.00168231	0.00213528	0.00123594	0.000956339	1	11	0.0349724	0.000119736	3.12501e-06	0.0000000E+000	-100.086	0.00162843	0.00301168	0.00342374	61.5996	2.98944e-08
354810	201.879	317.342	376.113	-57.5374	7.31349	-0.00150946	0.00198177	0.0014135	0.00100627	1	11	0.0659772	0.000175418	3.69191e-06	0.0000000E+000	-100.062	0.0014271	0.00224332	0.00265877	57.5374	4.66342e-09
251188	284.074	375.875	471.148	-52.9192	9.09949	-0.0015544	0.00204812	0.00168569	0.00107288	1	11	0.106193	0.000225392	4.78658e-06	0.0000000E+000	-100.134	0.00127973	0.00169328	0.00212248	52.9192	4.47175e-07
177832	385.003	430.084	577.235	-48.1657	10.9185	-0.00161945	0.000210053	0.00208093	0.00115521	1	12	0.0670621	0.000116178	5.63827e-06	0.0000000E+000	-100.11	0.00115547	0.00129077	0.0017324	48.1657	1.97689e-07
125909	498.502	471.617	686.241	-43.4126	12.7075	-0.00160116	0.000212591	0.00268023	0.0012659	1	12	0.107926	0.000157272	5.84189e-06	0.0000000E+000	-100.078	0.00105855	0.00100147	0.00145721	43.4126	3.36883e-08
89129.3	619.311	502.011	797.221	-39.0281	14.3585	-0.00150533	0.000215911	0.00355702	0.00141044	1	12	0.130196	0.000163313	5.5286e-06	0.0000000E+000	-100.086	0.000974432	0.00078987	0.00125436	39.0281	-2.99584e-08
63093.8	743.982	523.366	909.627	-35.1251	16.1465	-0.00142079	0.000231781	0.00481978	0.00159556	1	12	0.12995	0.00014286	5.52773e-06	0.0000000E+000	-100.054	0.000899157	0.000632527	0.00109935	35.1251	1.05115e-07
44666.7	870.883	537.471	1023.38	-31.6811	17.9335	-0.00136386	0.000255576	0.0066295	0.00182858	1	12	0.129521	0.000126562	5.57091e-06	0.0000000E+000	-100.094	0.000831541	0.000513191	0.000977151	31.6811	-2.13165e-08
31621.1	999.721	545.847	1139.03	-28.6345	19.5835	-0.00133666	0.000239836	0.00922086	0.00211759	1	12	0.130103	0.000114223	5.59654e-06	0.0000000E+000	-100.11	0.000770562	0.000420727	0.000877939	28.6345	-1.12502e-07
22389	1129.83	548.191	1255.8	-25.8826	21.0995	-0.00132308	0.00024985	0.0129674	0.00247103	1	12	0.133979	0.000106689	5.70869e-06	0.0000000E+000	-100.054	0.000716431	0.000347611	0.000796308	25.8826	2.54908e-08
15847.7	1260.14	543.921	1372.52	-23.3467	22.6155	-0.0013169	0.000244759	0.0184637	0.0028997	1	12	0.1294	9.42794e-05	5.66656e-06	0.0000000E+000	-100.086	0.000668933	0.000288735	0.000728587	23.3467	-7.86641e-08
11217.7	1388.35	531.973	1486.78	-20.9653	23.9945	-0.00131305	0.00023301	0.0266702	0.00341438	1	12	0.132459	8.9091e-05	5.68982e-06	0.0000000E+000	-100.046	0.000628067	0.000240656	0.000672595	20.9653	-8.15995e-09
7944	1511.55	512.53	1596.08	-18.7305	25.463	-0.00127141	0.000231872	0.0390897	0.00403078	1	12	0.133404	8.35823e-05	5.77133e-06	0.0000000E+000	-100.062	0.000593352	0.000201191	0.000626534	18.7305	1.05379e-07
5621.06	1626.7	487.334	1698.13	-16.6774	27.3753	-0.00124598	0.000217624	0.0581	0.00478506	1	12	0.13354	7.86397e-05	5.89208e-06	0.0000000E+000	-100.054	0.000564113	0.000168999	0.000588883	16.6774	6.9628e-08
3981.27	1729.64	458.124	1789.28	-14.8351	29.6557	-0.00123921	0.00021464	0.08726	0.00572037	1	12	0.133426	7.45699e-05	6.1907e-06	0.0000000E+000	-100.07	0.000540254	0.000143095	0.000558884	14.8351	6.81064e-08
2817.3	1819.78	430.566	1870.02	-13.3116	31.9359	-0.00124398	0.000224972	0.131204	0.00695559	1	12	0.133278	7.12708e-05	6.39241e-06	0.0000000E+000	-100.086	0.000520385	0.000123125	0.000534753	13.3116	2.29229e-08
1995.64	1896.43	409.612	1940.17	-12.1881	34.2157	-0.00123298	0.000216654	0.1947	0.00867827	1	12	0.133151	6.86289e-05	6.47182e-06	0.0000000E+000	-100.102	0.000503802	0.000108817	0.00051542	12.1881	3.2164e-08
1411.84	1959.72	401.908	2000.51	-11.5897	36.4972	-0.0012342	0.000244199	0.280485	0.0113209	1	12	0.133063	6.65144e-05	6.66401e-06	0.0000000E+000	-100.07	0.00048968	0.000100425	0.000499872	11.5897	9.20962e-08
1000.32	2016.1	412.548	2057.88	-11.5646	38.7747	-0.00123955	0.000242072	0.385662	0.0154995	1	12	0.132997	6.46282e-05	6.85166e-06	0.0000000E+000	-100.078	0.000476073	9.74171e-05	0.000485938	11.5646	8.7753e-08
707.509	2066.42	447.52	2114.32	-12.2197	41.0555	-0.0012459	0.000206508	0.502662	0.0225194	1	12	0.132955	6.2883e-05	7.01878e-06	0.0000000E+000	-100.086	0.000462249	0.000100108	0.000472965	12.2197	5.06285e-08
501.444	2119.1	511.04	2179.85	-13.5585	43.3272	-0.00124421	0.000214304	0.621073	0.0341349	1	12	0.132926	6.09796e-05	7.15276e-06	0.0000000E+000	-100.11	0.000445962	0.000107548	0.000458747	13.5585	8.93519e-08
354.66	2176.64	610.577	2260.66	-15.6695	45.6069	-0.00123938	0.000209529	0.734967	0.0536143	1	12	0.132906	5.87911e-05	7.19017e-06	0.0000000E+000	-100.022	0.00042591	0.000119474	0.00044235	15.6695	1.11603e-08
251.044	2242.7	750.009	2364.79	-18.4911	47.8759	-0.0012506	0.000210704	0.845285	0.0850262	1	12	0.132888	5.61945e-05	7.40401e-06	0.0000000E+000	-100.078	0.00040104	0.000134117	0.000422871	18.4911	9.88911e-08
177.781	2326.15	945.93	2511.13	-22.1291	50.1682	-0.00124057	0.000220346	0.9464	0.134294	1	12	0.132873	5.29137e-05	7.63105e-06	0.0000000E+000	-100.102	0.000368893	0.00015001	0.000398227	22.1291	3.92425e-08
125.846	2423.78	1208.51	2708.36	-26.5012	52.6934	-0.00125524	4.77566e-05	1.04648	0.208363	1	13	0.133297	4.9217e-05	7.83715e-06	0.0000000E+000	-100.078	0.000330431	0.000164755	0.000369227	26.5012	1.42433e-07
89.116	2543.4	1560.12	2983.77	-31.5249	54.9657	-0.00125243	4.35429e-05	1.14474	0.312963	1	13	0.133181	4.4635e-05	7.81899e-06	0.0000000E+000	-100.046	0.000285683	0.000175238	0.000335147	31.5249	2.99664e-08
63.0823	2694.36	2036.07	3377.15	-37.0775	57.2618	-0.00125142	4.46876e-05	1.23914	0.450406	1	13	0.133077	3.9405e-05	7.83052e-06	0.0000000E+000	-100.07	0.00023624	0.000178522	0.000296107	37.0775	-1.15756e-10
44.6712	2885.89	2676.78	3936.18	-42.8472	59.5262	-0.00126024	3.86766e-05	1.33101	0.615539	1	13	0.132993	3.37874e-05	7.90628e-06	0.0000000E+000	-100.054	0.000186264	0.000172768	0.000254054	42.8472	3.09917e-09
31.6296	3137.33	3536.51	4727.55	-48.4229	61.7635	-0.00126374	2.53288e-05	1.42283	0.796213	1	13	0.132923	2.81167e-05	7.95139e-06	0.0000000E+000	-100.102	0.000140374	0.000158235	0.000211526	48.4229	3.48918e-08
22.3854	3473.06	4709.04	5851.25	-53.5901	64.0104	-0.00126171	3.57247e-05	1.50981	0.977889	1	13	0.132883	2.27101e-05	7.96175e-06	0.0000000E+000	-100.086	0.000101441	0.000137542	0.000170904	53.5901	-2.63512e-08
15.8576	3931.9	6297.48	7424.16	-58.021	66.3389	-0.00126292	3.5775e-05	1.59374	1.14672	1	13	0.132852	1.78945e-05	8.04514e-06	0.0000000E+000	-100.07	7.13359e-05	0.000114254	0.000134695	58.021	1.01513e-07
11.2249	4626.71	8382.43	9574.53	-61.1034	68.7159	-0.0012614	3.00473e-05	1.69149	1.29651	1	13	0.132832	1.38735e-05	8.04292e-06	0.0000000E+000	-100.03	5.04705e-05	9.14398e-05	0.000104444	61.1034	6.90559e-08
7.93953	5645.53	11226.6	12566.2	-63.3036	71.2587	-0.00125501	3.65662e-05	1.78557	1.42517	1	13	0.132821	1.05697e-05	8.08326e-06	0.0000000E+000	-100.094	3.57518e-05	7.10955e-05	7.95787e-05	63.3036	6.80782e-08
5.6205	7232.51	14939.7	16598.3	-64.1677	73.1237	-0.00126045	2.844e-05	1.89541	1.53554	1	13	0.132814	8.00165e-06	8.00995e-06	0.0000000E+000	-100.054	2.62521e-05	5.42269e-05	6.02472e-05	64.1677	-3.27633e-08
3.97785	9814.29	19682.1	21993.3	-63.4973	75.6592	-0.00125082	3.21436e-05	2.03283	1.62803	1	13	0.132815	6.03888e-06	8.13946e-06	0.0000000E+000	-100.046	2.02898e-05	4.06903e-05	4.54684e-05	63.4973	-8.58282e-10
2.81836	13798.1	25565.8	29051.6	-61.6438	79.5616	-0.00124061	2.76889e-05	2.20884	1.71057	1	14	0.13283	4.57219e-06	8.17727e-06	0.0000000E+000	-100.054	1.63485e-05	3.02913e-05	3.44215e-05	61.6438	4.05039e-08
1.99706	19946.6	32481.6	38117.2	-58.4463	84.4247	-0.00123441	2.44048e-05	2.45353	1.78166	1	14	0.132822	3.48458e-06	8.19071e-06	0.0000000E+000	-100.11	1.37286e-05	2.23561e-05	2.62349e-05	58.4463	7.09738e-08
1.41224	29264.2	39351.6	49040.2	-53.3633	91.2302	-0.00123205	3.24432e-05	2.86385	1.84404	1	14	0.132816	2.70831e-06	8.11882e-06	0.0000000E+000	-100.086	1.21684e-05	1.63628e-05	2.03914e-05	53.3633	-1.3161e-07
1.00006	41852.5	43590.6	60429.9	-46.1654	100.776	-0.00122507	1.83401e-05	3.6509	1.89968	1	14	0.132814	2.19783e-06	8.25332e-06	0.0000000E+000	-100.086	1.14609e-05	1.19368e-05	1.65481e-05	46.1654	4.78754e-08