Folder: ImpedanceFitter/data (part 12)

File: DE_49_9_30.mpt
EC-Lab ASCII FILE
Nb header lines : 75

Potentio Electrochemical Impedance Spectroscopy

Run on channel : 1 (SN 20909)
User :
CE vs. WE compliance from -10 V to 10 V
Electrode connection : standard
Ewe ctrl range : min = -10.00 V, max = 10.00 V
Safety Limits :
	Do not start on E overload
Acquisition started on : 01/22/2020 09:43:49
Technique started on : 01/22/2020 09:43:50
Saved on :
	File : DE_49_9_30.mpr
	Directory : P:\Chemistry\Data\VMP3\Kyler\DOE\DE_49\30C\
	Host : 10.0.4.99
Device : VMP3 (SN 0183)
Address : USB
EC-Lab for windows v11.33 (software)
Internet server v11.32 (firmware)
Command interpretor v11.33 (firmware)
Electrode material :
Initial state :
Electrolyte :
Comments :
Electrode surface area : 0.001 cm²
Characteristic mass : 0.001 g
Equivalent Weight : 0.000 g/eq.
Density : 0.000 g/cm3
Record Analogic IN 1
Cycle Definition : Charge/Discharge alternance
External device configuration :
   device type : Thermostat
   device name : Other
   Analog OUT :
      mode : E/V
      unit : T/°C
      max : 400.000 at 5.000 V
      min : -100.000 at 0.000 V
      current : 0.000
   Analog IN 1 :
      unit : T/°C
      max : 400.000 at 5.000 V
      min : -100.000 at 0.000 V
Mode                Single sine
E (V)               0.0000
vs.                 Eoc
tE (h:m:s)          0:00:0.0000
record              0
dI                  1.000
unit dI             mA
dt (s)              0.000
fi                  1.000
unit fi             MHz
ff                  1.000
unit ff             Hz
Nd                  20
Points              per decade
spacing             Logarithmic
Va (mV)             128.0
pw                  0.50
Na                  3
corr                0
E range min (V)     -10.000
E range max (V)     10.000
I Range             Auto
Bandwidth           5
nc cycles           0
goto Ns'            0
nr cycles           0
inc. cycle          1

freq/Hz	Re(Z)/Ohm	-Im(Z)/Ohm	|Z|/Ohm	Phase(Z)/deg	time/s	<Ewe>/V	<I>/mA	Cs/µF	Cp/µF	cycle number	I Range	|Ewe|/V	|I|/A	(Q-Qo)/mA.h	Analog OUT/V	Analog IN 1/V	Re(Y)/Ohm-1	Im(Y)/Ohm-1	|Y|/Ohm-1	Phase(Y)/deg	dq/mA.h
1.00002e+06	32.983	202.649	205.316	-80.7557	1.95148	-0.00180695	0.00316315	0.000785357	0.000765089	1	11	0.00575394	2.80248e-05	8.52487e-07	0.0000000E+000	-100.07	0.000782429	0.00480729	0.00487055	80.7557	8.52487e-07
707950	52.7119	270.316	275.407	-78.9657	3.73949	-0.000417602	0.00321765	0.000831662	0.000801196	1	11	0.0202912	7.3677e-05	2.4093e-06	0.0000000E+000	-100.046	0.000694958	0.00356386	0.00363099	78.9657	5.03798e-07
501206	73.9895	369.759	377.089	-78.6844	5.5275	0.000635172	0.00324994	0.000858787	0.000825724	1	11	0.045215	0.000119906	4.31768e-06	0.0000000E+000	-100.078	0.000520335	0.00260035	0.0026519	78.6844	8.01859e-07
354810	101.664	504.394	514.538	-78.6043	7.3155	0.00114726	0.003182	0.000889313	0.000854595	1	11	0.0775517	0.000150721	5.84776e-06	0.0000000E+000	-100.046	0.000384001	0.00190518	0.00194349	78.6043	6.27409e-07
251188	181.482	716.961	739.573	-75.7952	9.40449	0.00123654	0.0012359	0.000883744	0.000830529	1	12	0.0585248	7.91332e-05	6.49399e-06	0.0000000E+000	-100.126	0.000331797	0.00131079	0.00135213	75.7952	1.66657e-07
177832	235.69	959.601	988.121	-76.2006	11.1925	0.00133536	0.00125034	0.000932653	0.000879591	1	12	0.106092	0.000107368	6.84054e-06	0.0000000E+000	-100.062	0.000241391	0.000982811	0.00101202	76.2006	1.46618e-08
125909	304.51	1286.44	1321.99	-76.6828	12.8435	0.00148305	0.00126203	0.000982587	0.000930454	1	12	0.130756	9.89079e-05	7.35848e-06	0.0000000E+000	-100.102	0.000174238	0.000736093	0.000756433	76.6828	1.26913e-07
89129.3	391.36	1730.04	1773.76	-77.2534	14.6295	0.00162956	0.00122548	0.00103215	0.000981902	1	12	0.13025	7.34317e-05	7.91803e-06	0.0000000E+000	-100.134	0.000124391	0.000549881	0.000563775	77.2534	1.75464e-08
63093.8	502.671	2335.65	2389.13	-77.8542	16.4165	0.00165688	0.00120932	0.00108001	0.0010322	1	12	0.129338	5.41363e-05	8.49668e-06	0.0000000E+000	-100.07	8.80655e-05	0.000409194	0.000418563	77.8542	1.67946e-07
44666.7	646.225	3164.09	3229.41	-78.4568	17.9315	0.00167836	0.00118881	0.00112613	0.00108103	1	12	0.135333	4.19065e-05	9.02809e-06	0.0000000E+000	-100.11	6.19639e-05	0.000303391	0.000309655	78.4568	1.21787e-07
31621.1	841.398	4303.32	4384.81	-78.9369	19.4455	0.00168472	0.00119232	0.0011696	0.00112654	1	12	0.131196	2.99205e-05	9.61803e-06	0.0000000E+000	-100.07	4.37623e-05	0.000223822	0.00022806	78.9369	1.73641e-07
22389	1369.85	5907.4	6064.15	-76.9446	21.2645	0.00167243	0.000963446	0.00120334	0.00114194	1	13	0.129398	2.13383e-05	1.01124e-05	0.0000000E+000	-100.07	3.72506e-05	0.000160641	0.000164904	76.9446	1.29392e-07
15847.7	1760.78	8035.57	8226.23	-77.6405	22.6425	0.0016847	0.000976311	0.00124979	0.00119253	1	13	0.133346	1.62099e-05	1.04683e-05	0.0000000E+000	-100.07	2.60199e-05	0.000118745	0.000121562	77.6405	1.09815e-07
11217.7	2345.37	10969.7	11217.6	-77.9316	24.0205	0.00167264	0.000970219	0.00129337	0.00123683	1	13	0.122463	1.09171e-05	1.08198e-05	0.0000000E+000	-100.078	1.86386e-05	8.71755e-05	8.91457e-05	77.9316	1.17074e-07
7944	3256.97	15015.7	15364.9	-77.7619	25.642	0.00168646	0.000967123	0.00133424	0.00127429	1	13	0.126592	8.23904e-06	1.12571e-05	0.0000000E+000	-100.086	1.3796e-05	6.36044e-05	6.50834e-05	77.7619	1.81927e-07
5621.06	4726.93	20511	21048.6	-77.0223	27.5533	0.00174441	0.000983923	0.00138044	0.00131082	1	13	0.121972	5.79479e-06	1.17621e-05	0.0000000E+000	-100.102	1.06692e-05	4.62956e-05	4.75091e-05	77.0223	1.85401e-07
3981.27	7209.6	27913.1	28829.1	-75.5177	29.8337	0.00175918	0.00100127	0.00143216	0.00134259	1	13	0.119564	4.14735e-06	1.23803e-05	0.0000000E+000	-100.078	8.6746e-06	3.3585e-05	3.46872e-05	75.5177	2.09384e-07
2817.3	13926	37762.6	40248.6	-69.7572	32.3649	0.00174609	0.000970546	0.00149598	0.00131689	1	14	0.128238	3.18616e-06	1.30592e-05	0.0000000E+000	-100.102	8.59658e-06	2.3311e-05	2.48456e-05	69.7572	2.66525e-07
1995.64	21186.6	49647	53978.6	-66.8899	34.6447	0.00174544	0.000958492	0.00160637	0.0013589	1	14	0.123236	2.28306e-06	1.36698e-05	0.0000000E+000	-100.078	7.27138e-06	1.70392e-05	1.85258e-05	66.8899	2.00283e-07
1411.84	33148.8	63602.3	71722.3	-62.472	36.9252	0.00174971	0.00096967	0.0017724	0.0013938	1	14	0.120302	1.67733e-06	1.42803e-05	0.0000000E+000	-100.03	6.44405e-06	1.23641e-05	1.39427e-05	62.472	2.03127e-07
1000.32	51240.6	77413.5	92835.6	-56.4991	39.2027	0.00174602	0.000972323	0.00205525	0.00142912	1	14	0.118726	1.27889e-06	1.48903e-05	0.0000000E+000	-100.102	5.94545e-06	8.9823e-06	1.07717e-05	56.4991	2.03993e-07
707.509	75661.9	87596	115749	-49.1809	41.4824	0.00174156	0.000973075	0.00256805	0.00147075	1	14	0.117895	1.01854e-06	1.55026e-05	0.0000000E+000	-100.07	5.64735e-06	6.5381e-06	8.6394e-06	49.1809	2.04151e-07
501.444	102729	91076	137289	-41.559	43.7542	0.00175049	0.000969928	0.00348493	0.00153367	1	14	0.117473	8.55666e-07	1.61121e-05	0.0000000E+000	-100.07	5.45037e-06	4.83209e-06	7.28393e-06	41.559	2.02787e-07
354.66	128405	87936.5	155630	-34.4049	46.034	0.00174997	0.000980814	0.00510316	0.00162927	1	14	0.11726	7.53455e-07	1.6727e-05	0.0000000E+000	-100.054	5.30147e-06	3.63065e-06	6.42551e-06	34.4049	2.05949e-07
251.044	148893	81388.8	169686	-28.6622	48.3019	0.00175601	0.000979508	0.00778941	0.00179202	1	14	0.117141	6.90342e-07	1.73408e-05	0.0000000E+000	-100.07	5.1711e-06	2.82666e-06	5.89324e-06	28.6622	2.03828e-07
177.781	163957	75369.1	180451	-24.6877	50.5942	0.00174872	0.00098031	0.0118779	0.0020721	1	14	0.117081	6.48824e-07	1.79658e-05	0.0000000E+000	-100.062	5.03516e-06	2.3146e-06	5.54168e-06	24.6877	2.09122e-07
125.846	175356	72434	189728	-22.4439	52.8694	0.00174898	0.000973739	0.0174598	0.00254485	1	14	0.117048	6.16929e-07	1.85786e-05	0.0000000E+000	-100.126	4.87148e-06	2.01225e-06	5.27071e-06	22.4439	2.0349e-07
89.116	185750	73793.9	199871	-21.6667	55.1418	0.00174106	0.000957516	0.0242016	0.00329902	1	14	0.117037	5.85562e-07	1.91842e-05	0.0000000E+000	-100.078	4.64973e-06	1.84723e-06	5.00322e-06	21.6667	2.04174e-07
63.0823	197208	80300.6	212930	-22.1555	57.4369	0.00175004	0.000961125	0.0314191	0.00446846	1	14	0.117054	5.49732e-07	1.97941e-05	0.0000000E+000	-100.086	4.34962e-06	1.77111e-06	4.69638e-06	22.1555	2.07497e-07
44.6712	207777	89477.6	226224	-23.2988	59.7022	0.00174809	0.000969656	0.0398179	0.00622914	1	14	0.117016	5.17258e-07	2.03985e-05	0.0000000E+000	-100.07	4.05993e-06	1.74838e-06	4.42039e-06	23.2988	2.0489e-07
31.6296	221461	103979	244656	-25.1507	61.9395	0.00174771	0.000963615	0.0483929	0.00874097	1	14	0.117011	4.78268e-07	2.09984e-05	0.0000000E+000	-100.062	3.69986e-06	1.73713e-06	4.08737e-06	25.1507	1.93901e-07
22.3854	237962	123028	267884	-27.3392	64.1864	0.00173552	0.000977439	0.05779	0.0121889	1	14	0.117009	4.3679e-07	2.16036e-05	0.0000000E+000	-100.046	3.316e-06	1.71439e-06	3.73297e-06	27.3392	1.86531e-07
15.8576	257732	147401	296906	-29.7659	66.5149	0.00173744	0.000970533	0.0680898	0.0167821	1	14	0.117001	3.94069e-07	2.22296e-05	0.0000000E+000	-100.11	2.92369e-06	1.67211e-06	3.36807e-06	29.7659	1.92341e-07
11.2249	281289	178858	333337	-32.4503	68.8919	0.00173388	0.000966381	0.079274	0.0228234	1	14	0.11701	3.51025e-07	2.28702e-05	0.0000000E+000	-100.038	2.53154e-06	1.60969e-06	2.99997e-06	32.4503	1.82244e-07
7.93953	309190	219405	379127	-35.36	71.4347	0.00174688	0.000963773	0.0913647	0.0305987	1	14	0.117001	3.08607e-07	2.35488e-05	0.0000000E+000	-100.046	2.15108e-06	1.52643e-06	2.63764e-06	35.36	2.48018e-07
5.6205	345285	266218	435998	-37.6326	73.2996	0.00173363	0.000968556	0.106367	0.0396565	1	14	0.117005	2.68361e-07	2.40507e-05	0.0000000E+000	-100.038	1.81639e-06	1.40046e-06	2.29359e-06	37.6326	1.85613e-07
3.97785	385890	332501	509380	-40.7497	75.8352	0.00174171	0.000962464	0.120331	0.051272	1	14	0.117003	2.29696e-07	2.47247e-05	0.0000000E+000	-100.078	1.48723e-06	1.28147e-06	1.96317e-06	40.7497	2.48803e-07
2.81836	425967	413804	593870	-44.1702	79.3347	0.00174434	0.000947667	0.136467	0.0662576	1	14	0.117001	1.97015e-07	2.56555e-05	0.0000000E+000	-100.062	1.2078e-06	1.17331e-06	1.68387e-06	44.1702	3.39347e-07
2.23982	475431	478952	674856	-45.2114	82.3934	0.00175174	0.000952143	0.148359	0.0747269	1	14	0.117004	1.73376e-07	2.64619e-05	0.0000000E+000	-100.07	1.04392e-06	1.05165e-06	1.4818e-06	45.2114	4.21706e-07

File: DE_57_6_60.mpt
EC-Lab ASCII FILE
Nb header lines : 60

Potentio Electrochemical Impedance Spectroscopy

Run on channel : 2 (SN 20919)
User :
CE vs. WE compliance from -10 V to 10 V
Electrode connection : standard
Ewe ctrl range : min = -10.00 V, max = 10.00 V
Acquisition started on : 02/07/2020 11:51:25
Technique started on : 02/07/2020 11:51:26
Saved on :
	File : DE_57_6_60.mpr
	Directory : P:\Chemistry\Data\VMP3\Kyler\DOE\DE_57\60c\
	Host : 10.0.4.99
Device : VMP3
Address : USB
EC-Lab for windows v11.33 (software)
Internet server v11.32 (firmware)
Command interpretor v11.33 (firmware)
Electrode material :
Initial state :
Electrolyte :
Comments :
Electrode surface area : 0.001 cm²
Characteristic mass : 0.001 g
Equivalent Weight : 0.000 g/eq.
Density : 0.000 g/cm3
Record Analogic IN 1
Cycle Definition : Charge/Discharge alternance
Mode                Single sine
E (V)               0.0000
vs.                 Eoc
tE (h:m:s)          0:00:0.0000
record              0
dI                  1.000
unit dI             mA
dt (s)              0.000
fi                  1.000
unit fi             MHz
ff                  1.000
unit ff             Hz
Nd                  20
Points              per decade
spacing             Logarithmic
Va (mV)             128.0
pw                  0.50
Na                  3
corr                0
E range min (V)     -10.000
E range max (V)     10.000
I Range             Auto
Bandwidth           5
nc cycles           0
goto Ns'            0
nr cycles           0
inc. cycle          1

freq/Hz	Re(Z)/Ohm	-Im(Z)/Ohm	|Z|/Ohm	Phase(Z)/deg	time/s	<Ewe>/V	<I>/mA	Cs/µF	Cp/µF	cycle number	I Range	|Ewe|/V	|I|/A	(Q-Qo)/mA.h	Analog IN 1/V	Re(Y)/Ohm-1	Im(Y)/Ohm-1	|Y|/Ohm-1	Phase(Y)/deg	dq/mA.h
1.00002e+06	54.0189	16.6149	56.5164	-17.0967	1.9515	-0.00469599	0.00287346	0.00957884	0.00082787	1	11	0.00103842	1.83739e-05	1.00669e-06	-0.00157965	0.0169121	0.00520176	0.017694	17.0967	1.00669e-06
707950	51.4778	10.3687	52.5117	-11.3882	3.73848	-0.00364274	0.00270471	0.0216816	0.000845341	1	11	0.00388384	7.39616e-05	2.1449e-06	-0.00165983	0.0186685	0.00376023	0.0190434	11.3882	6.74705e-07
501206	54.5522	8.45849	55.2041	-8.8137	5.52649	-0.00303186	0.00285711	0.0375414	0.000881362	1	11	0.01046	0.000189479	3.75942e-06	-0.00165983	0.0179007	0.00277556	0.0181146	8.8137	8.81072e-07
354810	57.4821	6.76878	57.8793	-6.71591	7.31349	-0.00285229	0.00296825	0.0662695	0.000906334	1	11	0.0217183	0.000375234	5.5576e-06	-0.00182019	0.0171588	0.00202052	0.0172773	6.71591	8.60937e-07
251188	58.86	5.76649	59.1418	-5.59538	9.1005	-0.0028871	0.00297328	0.109878	0.00104459	1	11	0.0386907	0.000654201	7.61563e-06	-0.00125893	0.0168279	0.00164863	0.0169085	5.59538	1.43195e-06
177832	59.8322	4.85451	60.0289	-4.63856	10.8885	-0.00287479	0.0029705	0.184359	0.00120569	1	11	0.062415	0.00103975	9.17583e-06	-0.00109857	0.0166041	0.00134718	0.0166587	4.63856	-1.17092e-06
125909	60.1957	4.45506	60.3604	-4.23272	12.6765	-0.00284851	0.00274676	0.283732	0.00154565	1	11	0.0922079	0.00152762	8.94703e-06	-0.00141929	0.016522	0.00122278	0.0165672	4.23272	1.35739e-06
89129.3	60.6852	3.82377	60.8056	-3.60544	14.1915	-0.00284515	0.00275959	0.46699	0.00184674	1	11	0.130318	0.00214319	9.27534e-06	-0.00149947	0.0164133	0.0010342	0.0164459	3.60544	-7.69456e-07
63093.8	61.0185	3.80571	61.1371	-3.5689	15.9795	-0.00274092	0.0029419	0.662822	0.00256838	1	11	0.129614	0.00212006	1.89768e-05	-0.00141929	0.016325	0.00101818	0.0163567	3.5689	4.44692e-06
44666.7	61.2861	4.10385	61.4233	-3.83093	17.7665	-0.00267593	0.00276442	0.86825	0.00387579	1	11	0.129406	0.00210679	1.43184e-05	-0.00149947	0.0162441	0.00108774	0.0162805	3.83093	-2.56189e-06
31621.1	61.5102	4.84558	61.7008	-4.50428	19.4185	-0.00264332	0.00347807	1.03872	0.0064063	1	11	0.140193	0.00227214	1.12494e-05	-0.00165983	0.0161572	0.00127281	0.0162072	4.50428	1.36922e-07
22389	61.6856	5.95502	61.9724	-5.51415	21.0705	-0.00257806	0.00516147	1.19372	0.0110223	1	11	0.130114	0.00209955	1.19219e-05	-0.00125893	0.0160616	0.00155055	0.0161362	5.51415	2.55049e-06
15847.7	61.9812	7.79491	62.4695	-7.16803	22.5865	-0.00258855	0.00270123	1.28838	0.02006	1	11	0.135484	0.00216881	1.85272e-05	-0.00117875	0.0158827	0.00199745	0.0160078	7.16803	1.92296e-06
11217.7	62.3009	10.3188	63.1497	-9.4044	24.1005	-0.00257356	0.00304876	1.37495	0.0367115	1	11	0.133179	0.00210895	1.61349e-05	-0.00157965	0.0156226	0.00258753	0.0158354	9.4044	-1.80534e-06
7944	62.8067	13.809	64.3068	-12.4	25.568	-0.00255171	0.00344332	1.45084	0.0669003	1	11	0.140595	0.00218631	1.56854e-05	-0.00165983	0.0151877	0.00333924	0.0155504	12.4	-7.44348e-07
5621.06	63.4681	18.7896	66.191	-16.4912	27.6493	-0.00251642	0.00343049	1.5069	0.121429	1	11	0.131536	0.00198722	1.94102e-05	-0.00141929	0.0144863	0.00428864	0.0151078	16.4912	2.2661e-07
3981.27	64.2003	25.7549	69.1736	-21.859	29.9297	-0.00251685	0.00371131	1.55216	0.215168	1	11	0.13293	0.00192169	1.79238e-05	-0.00101839	0.013417	0.00538244	0.0144564	21.859	-1.21706e-07
2817.3	65.166	35.3581	74.1404	-28.4836	32.2099	-0.00248755	0.00267186	1.59772	0.363384	1	11	0.133091	0.00179512	1.67155e-05	-0.00149947	0.0118553	0.00643248	0.0134879	28.4836	-9.59304e-09
1995.64	66.4254	48.6346	82.3265	-36.2104	34.4897	-0.00250928	0.00352824	1.63981	0.572274	1	11	0.132618	0.00161087	2.10835e-05	-0.00149947	0.00980065	0.00717572	0.0121468	36.2104	6.40362e-08
1411.84	68.2987	67.0739	95.7268	-44.4816	36.7712	-0.0025234	0.00427738	1.68067	0.825129	1	11	0.131851	0.00137737	2.42406e-05	-0.000938206	0.00745325	0.00731959	0.0104464	44.4816	4.55323e-07
1000.32	70.8617	92.6339	116.629	-52.5853	39.0487	-0.00250453	0.00368285	1.71756	1.08352	1	11	0.131061	0.00112373	2.66675e-05	-0.00117875	0.00520949	0.00681011	0.00857417	52.5853	8.57288e-07
707.509	75.0435	128.649	148.937	-59.7442	41.3295	-0.00250789	0.00363192	1.74856	1.30464	1	11	0.130453	0.000875894	2.94439e-05	-0.00109857	0.00338306	0.00579967	0.00671426	59.7442	1.66052e-06
501.444	79.5694	177.418	194.444	-65.8444	43.6012	-0.00250626	0.00327212	1.78896	1.48939	1	11	0.13005	0.000668832	3.26599e-05	-0.00109857	0.00210455	0.00469256	0.00514288	65.8444	6.49955e-07
354.66	87.1493	246.709	261.65	-70.5444	45.8799	-0.00251971	0.0035914	1.81896	1.61716	1	11	0.129812	0.000496128	3.46227e-05	-0.00141929	0.00127299	0.00360367	0.00382191	70.5444	6.41303e-07
251.044	99.3125	342.223	356.341	-73.8173	48.3979	-0.00237702	0.00251102	1.85251	1.70862	1	12	0.131121	0.000367964	3.97853e-05	-0.00165983	0.000782116	0.00269511	0.0028063	73.8173	1.24441e-06
177.781	116.17	477.193	491.13	-76.3178	50.6893	-0.0024948	0.00695499	1.87603	1.77107	1	12	0.130394	0.000265498	4.46335e-05	-0.00133911	0.000481617	0.00197834	0.00203612	76.3178	1.34465e-06
125.846	147.626	656.289	672.688	-77.3229	52.9634	-0.00250296	0.00717083	1.92702	1.83421	1	12	0.129944	0.000193171	4.9444e-05	-0.00133911	0.000326238	0.00145033	0.00148657	77.3229	1.75044e-06
89.116	196.6	888.948	910.429	-77.5292	55.2357	-0.00253436	0.00836897	2.00904	1.91535	1	12	0.129715	0.000142477	5.40214e-05	-0.00117875	0.000237188	0.00107247	0.00109838	77.5292	1.48404e-06
63.0823	271.819	1262.18	1291.11	-77.8465	57.5318	-0.00255554	0.00870046	1.99891	1.91031	1	12	0.129664	0.000100428	5.86339e-05	-0.00165983	0.000163061	0.000757166	0.000774525	77.8465	1.46084e-06
44.6712	469.399	1671.44	1736.1	-74.3134	59.7962	-0.00251104	0.00778568	2.13158	1.97576	1	12	0.129526	7.46077e-05	6.33682e-05	-0.00254182	0.000155738	0.000554551	0.000576004	74.3134	1.36981e-06
31.6296	767.324	2341.42	2463.95	-71.8551	62.0325	-0.00253965	0.00829689	2.14906	1.94063	1	12	0.129524	5.25675e-05	6.72122e-05	-0.000777844	0.000126391	0.000385671	0.000405853	71.8551	1.45872e-06
22.3854	1163.86	3045.96	3260.74	-69.0881	64.5094	-0.00241029	0.000623127	2.33417	2.03679	1	13	0.129694	3.97743e-05	7.08066e-05	-0.000777844	0.000109463	0.000286478	0.000306679	69.0881	4.47947e-07
15.8576	1923.97	3899.14	4347.98	-63.7367	66.8379	-0.00252107	0.000740876	2.57404	2.07003	1	13	0.12959	2.98047e-05	7.1294e-05	-0.00157965	0.000101771	0.00020625	0.000229992	63.7367	1.39251e-07
11.2249	3055.34	4743.11	5642	-57.2118	69.2149	-0.00264254	0.000600363	2.98935	2.11269	1	13	0.129514	2.29554e-05	7.16749e-05	-0.00174001	9.59828e-05	0.000149004	0.000177242	57.2118	2.58955e-08
7.93953	4582.8	5399.56	7082.19	-49.6776	71.7587	-0.00251477	0.000744849	3.7125	2.15799	1	13	0.129537	1.82905e-05	7.23782e-05	-0.00125893	9.13685e-05	0.000107652	0.000141199	49.6776	3.53862e-07
5.6205	6404.99	5599.21	8507.35	-41.1598	73.6237	-0.00258425	0.000684951	5.05729	2.1907	1	13	0.129593	1.5233e-05	7.26869e-05	-0.000617483	8.84972e-05	7.73638e-05	0.000117545	41.1598	5.25573e-08
3.97785	8096.02	5305.57	9679.6	-33.2381	76.1592	-0.00250755	0.000759923	7.54118	2.26563	1	13	0.129522	1.33809e-05	7.33421e-05	-0.00141929	8.64086e-05	5.66262e-05	0.00010331	33.2381	4.03887e-07
2.81836	9547.52	4632.99	10612.2	-25.8853	79.6567	-0.00251245	0.000796499	12.1888	2.32311	1	13	0.129516	1.22044e-05	7.413e-05	-0.00198056	8.47766e-05	4.11383e-05	9.42307e-05	25.8853	6.14418e-07
1.99706	10602.7	3789.16	11259.4	-19.6657	84.5187	-0.00249023	0.000687067	21.0323	2.38199	1	13	0.12951	1.15023e-05	7.51922e-05	-0.00109857	8.36341e-05	2.98889e-05	8.88145e-05	19.6657	6.43165e-07
1.41224	11301.1	3034.39	11701.4	-15.0296	91.3252	-0.00249102	0.00100846	37.14	2.49751	1	13	0.129514	1.10683e-05	7.62664e-05	-0.00125893	8.25365e-05	2.21613e-05	8.54599e-05	15.0296	1.35592e-07
1.00006	11749.5	2249.82	11963	-10.8399	100.871	-0.00250024	0.000885633	70.7367	2.50185	1	13	0.129527	1.08273e-05	7.88653e-05	-0.00141929	8.20996e-05	1.57206e-05	8.35912e-05	10.8399	7.44448e-07